runID,imgID,stimLabel,imFile,corr,side,prac_trials_run1.thisRepN,prac_trials_run1.thisTrialN,prac_trials_run1.thisN,prac_trials_run1.thisIndex,trials_run1.thisRepN,trials_run1.thisTrialN,trials_run1.thisN,trials_run1.thisIndex,prac_trials_run2.thisRepN,prac_trials_run2.thisTrialN,prac_trials_run2.thisN,prac_trials_run2.thisIndex,X Scale,Y Scale,text_8.started,text_8.stopped,hand_hold_resp.keys,hand_hold_resp.corr,hand_hold_resp.rt,fixpR1,prac_resp.keys,prac_resp.corr,prac_resp.rt,prac_fix_resp.keys,prac_fix_resp.corr,feedback_msg.started,feedback_msg.stopped,prac_fix_resp.rt,text_7.started,text_7.stopped,fixR1,text_2.started,text_2.stopped,fix_resp1_1.keys,fix_resp1_1.started,fix_resp1_1.stopped,text_6.started,text_6.stopped,trial_image.started,trial_image.stopped,trial_resp.keys,trial_resp.corr,trial_resp.rt,trial_resp.started,trial_resp.stopped,fix_resp_2.keys,fix_resp_2.started,fix_resp_2.stopped,fix_resp1_1.rt,image_4.started,image_4.stopped,fixpR2,participant,design,position,date,expName,psychopyVersion,frameRate,
,,,,,,,,,,,,,,,,,,0.05,0.05,49.94457275304012,None,j,1,1.2200789789203554,,,,,,,,,,,,,,,,,,,,,,,,,,,,,,,,,,,1,2,2020_Nov_07_1843,global_local,2020.2.4,60.13964124961991,
1,3,smallHincon,Stimuli/SofH2.jpg,f,left,0,0,0,1,,,,,,,,,,,,,,,,0,f,1,1.0759329909924418,None,1,65.16094507998787,None,,,,,,,,,,,,,,,,,,,,,,,,,,,1,2,2020_Nov_07_1843,global_local,2020.2.4,60.13964124961991,
1,7,smallSincon,Stimuli/HofS2.jpg,j,left,0,1,1,0,,,,,,,,,,,,,,,,0,j,1,0.9520300729200244,None,1,72.66141230799258,None,,,,,,,,,,,,,,,,,,,,,,,,,,,1,2,2020_Nov_07_1843,global_local,2020.2.4,60.13964124961991,
1,1,smallHcongr,Stimuli/HofH2.jpg,f,left,0,2,2,3,,,,,,,,,,,,,,,,1,j,0,3.592157240025699,space,1,80.09479270305019,None,0.5885166050866246,,,,,,,,,,,,,,,,,,,,,,,,,,1,2,2020_Nov_07_1843,global_local,2020.2.4,60.13964124961991,
1,2,smallHcongr,Stimuli/HofH2.jpg,f,right,0,3,3,2,,,,,,,,,,,,,,,,0,f,1,1.4443825229536742,None,1,87.69500964204781,None,,,,,,,,,,,,,,,,,,,,,,,,,,,1,2,2020_Nov_07_1843,global_local,2020.2.4,60.13964124961991,
1,6,smallScongr,Stimuli/SofS2.jpg,j,right,,,,,0,0,0,6,,,,,,,,,,,,,,,,,,,,,89.69479258602951,None,0,101.76154358999338,None,None,101.76154358999338,None,103.37842282606289,None,103.37842282606289,None,j,1,2.0629583339905366,103.37842282606289,None,None,103.37842282606289,None,,,,,,1,2,2020_Nov_07_1843,global_local,2020.2.4,60.13964124961991,
1,6,smallScongr,Stimuli/SofS2.jpg,j,right,,,,,0,1,1,6,,,,,,,,,,,,,,,,,,,,,,,0,105.46164700598456,None,None,105.46164700598456,None,106.99494740006048,None,106.99494740006048,None,j,1,0.38230253593064845,106.99494740006048,None,None,106.99494740006048,None,,,,,,1,2,2020_Nov_07_1843,global_local,2020.2.4,60.13964124961991,
1,3,smallHincon,Stimuli/SofH2.jpg,f,left,,,,,0,2,2,1,,,,,,,,,,,,,,,,,,,,,,,0,107.39537490496878,None,None,107.39537490496878,None,108.81158785196021,None,108.81158785196021,None,f,1,0.6004432489862666,108.81158785196021,None,None,108.81158785196021,None,,,,,,1,2,2020_Nov_07_1843,global_local,2020.2.4,60.13964124961991,
1,5,smallScongr,Stimuli/SofS2.jpg,j,left,,,,,0,3,3,2,,,,,,,,,,,,,,,,,,,,,,,0,109.44508346007206,None,None,109.44508346007206,None,111.16186613298487,None,111.16186613298487,None,f,0,0.5711539880139753,111.16186613298487,None,None,111.16186613298487,None,,,,,,1,2,2020_Nov_07_1843,global_local,2020.2.4,60.13964124961991,
1,8,smallSincon,Stimuli/HofS2.jpg,j,right,,,,,0,4,4,7,,,,,,,,,,,,,,,,,,,,,,,1,111.76159649598412,None,space,111.76159649598412,None,113.04485423397273,None,113.04485423397273,None,j,1,0.484388695913367,113.04485423397273,None,None,113.04485423397273,None,0.7471607669722289,,,,,1,2,2020_Nov_07_1843,global_local,2020.2.4,60.13964124961991,
1,2,smallHcongr,Stimuli/HofH2.jpg,f,right,,,,,0,5,5,4,,,,,,,,,,,,,,,,,,,,,,,0,113.56155415496323,None,None,113.56155415496323,None,115.24499687401112,None,115.24499687401112,None,j,0,0.5411001089960337,115.24499687401112,None,None,115.24499687401112,None,,,,,,1,2,2020_Nov_07_1843,global_local,2020.2.4,60.13964124961991,
1,3,smallHincon,Stimuli/SofH2.jpg,f,left,,,,,0,6,6,1,,,,,,,,,,,,,,,,,,,,,,,0,115.8116124579683,None,None,115.8116124579683,None,117.47849309002049,None,117.47849309002049,None,f,1,0.34051996597554535,117.47849309002049,None,None,117.47849309002049,None,,,,,,1,2,2020_Nov_07_1843,global_local,2020.2.4,60.13964124961991,
1,5,smallScongr,Stimuli/SofS2.jpg,j,left,,,,,0,7,7,2,,,,,,,,,,,,,,,,,,,,,,,1,117.84541105397511,None,space,117.84541105397511,None,119.29523617797531,None,119.29523617797531,None,f,0,0.6216544610215351,119.29523617797531,None,None,119.29523617797531,None,0.6418896040413529,,,,,1,2,2020_Nov_07_1843,global_local,2020.2.4,60.13964124961991,
1,6,smallScongr,Stimuli/SofS2.jpg,j,right,,,,,1,0,8,6,,,,,,,,,,,,,,,,,,,,,,,0,119.9451729679713,None,None,119.9451729679713,None,121.21254914300516,None,121.21254914300516,None,j,1,0.4673930919962004,121.21254914300516,None,None,121.21254914300516,None,,,,,,1,2,2020_Nov_07_1843,global_local,2020.2.4,60.13964124961991,
1,6,smallScongr,Stimuli/SofS2.jpg,j,right,,,,,1,1,9,6,,,,,,,,,,,,,,,,,,,,,,,0,121.69501112296712,None,None,121.69501112296712,None,123.42842456605285,None,123.42842456605285,None,f,0,0.48202855500858277,123.42842456605285,None,None,123.42842456605285,None,,,,,,1,2,2020_Nov_07_1843,global_local,2020.2.4,60.13964124961991,
1,2,smallHcongr,Stimuli/HofH2.jpg,f,right,,,,,1,2,10,4,,,,,,,,,,,,,,,,,,,,,,,0,123.92842029896565,None,None,123.92842029896565,None,125.42846842296422,None,125.42846842296422,None,j,0,0.3105906479759142,125.42846842296422,None,None,125.42846842296422,None,,,,,,1,2,2020_Nov_07_1843,global_local,2020.2.4,60.13964124961991,
1,2,smallHcongr,Stimuli/HofH2.jpg,f,right,,,,,1,3,11,4,,,,,,,,,,,,,,,,,,,,,,,0,125.76173436001409,None,None,125.76173436001409,None,127.39494144800119,None,127.39494144800119,None,f,1,0.12328890594653785,127.39494144800119,None,None,127.39494144800119,None,,,,,,1,2,2020_Nov_07_1843,global_local,2020.2.4,60.13964124961991,
1,5,smallScongr,Stimuli/SofS2.jpg,j,left,,,,,1,4,12,2,,,,,,,,,,,,,,,,,,,,,,,0,127.54504427604843,None,None,127.54504427604843,None,129.06190330302343,None,129.06190330302343,None,j,1,0.23692425701301545,129.06190330302343,None,None,129.06190330302343,None,,,,,,1,2,2020_Nov_07_1843,global_local,2020.2.4,60.13964124961991,
1,7,smallSincon,Stimuli/HofS2.jpg,j,left,,,,,1,5,13,3,,,,,,,,,,,,,,,,,,,,,,,0,129.32842343801167,None,None,129.32842343801167,None,130.89512845501304,None,130.89512845501304,None,f,0,0.08743932994548231,130.89512845501304,None,None,130.89512845501304,None,,,,,,1,2,2020_Nov_07_1843,global_local,2020.2.4,60.13964124961991,
1,8,smallSincon,Stimuli/HofS2.jpg,j,right,,,,,1,6,14,7,,,,,,,,,,,,,,,,,,,,,,,0,131.01180763402954,None,None,131.01180763402954,None,132.59555569698568,None,132.59555569698568,None,f,0,0.5068834960693493,132.59555569698568,None,None,132.59555569698568,None,,,,,,1,2,2020_Nov_07_1843,global_local,2020.2.4,60.13964124961991,
1,4,smallHincon,Stimuli/SofH2.jpg,f,right,,,,,1,7,15,5,,,,,,,,,,,,,,,,,,,,,,,0,133.1283487599576,None,None,133.1283487599576,None,134.57835685706232,None,134.57835685706232,None,f,1,1.451294832979329,134.57835685706232,None,None,134.57835685706232,None,,,,,,1,2,2020_Nov_07_1843,global_local,2020.2.4,60.13964124961991,
1,3,smallHincon,Stimuli/SofH2.jpg,f,left,,,,,2,0,16,1,,,,,,,,,,,,,,,,,,,,,,,0,136.06201697397046,None,None,136.06201697397046,None,137.7788926300127,None,137.7788926300127,None,j,0,0.6120506300358102,137.7788926300127,None,None,137.7788926300127,None,,,,,,1,2,2020_Nov_07_1843,global_local,2020.2.4,60.13964124961991,
1,7,smallSincon,Stimuli/HofS2.jpg,j,left,,,,,2,1,17,3,,,,,,,,,,,,,,,,,,,,,,,0,138.41180792707019,None,None,138.41180792707019,None,139.76193003205117,None,139.76193003205117,None,j,1,0.41365887597203255,139.76193003205117,None,None,139.76193003205117,None,,,,,,1,2,2020_Nov_07_1843,global_local,2020.2.4,60.13964124961991,
1,8,smallSincon,Stimuli/HofS2.jpg,j,right,,,,,2,2,18,7,,,,,,,,,,,,,,,,,,,,,,,0,140.19543935207184,None,None,140.19543935207184,None,141.71177899104077,None,141.71177899104077,None,j,1,0.5718904220266268,141.71177899104077,None,None,141.71177899104077,None,,,,,,1,2,2020_Nov_07_1843,global_local,2020.2.4,60.13964124961991,
1,6,smallScongr,Stimuli/SofS2.jpg,j,right,,,,,2,3,19,6,,,,,,,,,,,,,,,,,,,,,,,0,142.31179599196184,None,None,142.31179599196184,None,143.59517727198545,None,143.59517727198545,None,j,1,0.48255176993552595,143.59517727198545,None,None,143.59517727198545,None,,,,,,1,2,2020_Nov_07_1843,global_local,2020.2.4,60.13964124961991,
1,6,smallScongr,Stimuli/SofS2.jpg,j,right,,,,,2,4,20,6,,,,,,,,,,,,,,,,,,,,,,,1,144.09523957106285,None,space,144.09523957106285,None,145.4118743389845,None,145.4118743389845,None,j,1,0.5464707829523832,145.4118743389845,None,None,145.4118743389845,None,0.9102685910183936,,,,,1,2,2020_Nov_07_1843,global_local,2020.2.4,60.13964124961991,
1,4,smallHincon,Stimuli/SofH2.jpg,f,right,,,,,2,5,21,5,,,,,,,,,,,,,,,,,,,,,,,0,145.97862767300103,None,None,145.97862767300103,None,147.36204430903308,None,147.36204430903308,None,j,0,0.0024463420268148184,147.36204430903308,None,None,147.36204430903308,None,,,,,,1,2,2020_Nov_07_1843,global_local,2020.2.4,60.13964124961991,
1,7,smallSincon,Stimuli/HofS2.jpg,j,left,,,,,2,6,22,3,,,,,,,,,,,,,,,,,,,,,,,0,147.39524822996464,None,None,147.39524822996464,None,148.96205909003038,None,148.96205909003038,None,j,1,0.2440908009884879,148.96205909003038,None,None,148.96205909003038,None,,,,,,1,2,2020_Nov_07_1843,global_local,2020.2.4,60.13964124961991,
1,7,smallSincon,Stimuli/HofS2.jpg,j,left,,,,,2,7,23,3,,,,,,,,,,,,,,,,,,,,,,,0,149.2288201060146,None,None,149.2288201060146,None,150.92858103406616,None,150.92858103406616,None,j,1,0.2989434109767899,150.92858103406616,None,None,150.92858103406616,None,,,,,,1,2,2020_Nov_07_1843,global_local,2020.2.4,60.13964124961991,
1,1,smallHcongr,Stimuli/HofH2.jpg,f,left,,,,,3,0,24,0,,,,,,,,,,,,,,,,,,,,,,,1,151.24533288995735,None,space,151.24533288995735,None,152.77852110902313,None,152.77852110902313,None,j,0,0.12230768497101963,152.77852110902313,None,None,152.77852110902313,None,1.1576487990096211,,,,,1,2,2020_Nov_07_1843,global_local,2020.2.4,60.13964124961991,
1,8,smallSincon,Stimuli/HofS2.jpg,j,right,,,,,3,1,25,7,,,,,,,,,,,,,,,,,,,,,,,1,152.92883476801217,None,space,152.92883476801217,None,154.6285604990553,None,154.6285604990553,None,j,1,0.29805642599239945,154.6285604990553,None,None,154.6285604990553,None,0.8061170190339908,,,,,1,2,2020_Nov_07_1843,global_local,2020.2.4,60.13964124961991,
1,6,smallScongr,Stimuli/SofS2.jpg,j,right,,,,,3,2,26,6,,,,,,,,,,,,,,,,,,,,,,,0,154.94525826105382,None,None,154.94525826105382,None,156.56191661895718,None,156.56191661895718,None,j,1,0.7057626009918749,156.56191661895718,None,None,156.56191661895718,None,,,,,,1,2,2020_Nov_07_1843,global_local,2020.2.4,60.13964124961991,
1,3,smallHincon,Stimuli/SofH2.jpg,f,left,,,,,3,3,27,1,,,,,,,,,,,,,,,,,,,,,,,0,157.29529576806817,None,None,157.29529576806817,None,159.01204279903322,None,159.01204279903322,None,f,1,0.5482165230205283,159.01204279903322,None,None,159.01204279903322,None,,,,,,1,2,2020_Nov_07_1843,global_local,2020.2.4,60.13964124961991,
1,5,smallScongr,Stimuli/SofS2.jpg,j,left,,,,,3,4,28,2,,,,,,,,,,,,,,,,,,,,,,,0,159.57865541498177,None,None,159.57865541498177,None,161.04542425007094,None,161.04542425007094,None,j,1,0.6157066699815914,161.04542425007094,None,None,161.04542425007094,None,,,,,,1,2,2020_Nov_07_1843,global_local,2020.2.4,60.13964124961991,
1,8,smallSincon,Stimuli/HofS2.jpg,j,right,,,,,3,5,29,7,,,,,,,,,,,,,,,,,,,,,,,0,161.67861995496787,None,None,161.67861995496787,None,163.17862202203833,None,163.17862202203833,None,f,0,0.5072856231126934,163.17862202203833,None,None,163.17862202203833,None,,,,,,1,2,2020_Nov_07_1843,global_local,2020.2.4,60.13964124961991,
1,7,smallSincon,Stimuli/HofS2.jpg,j,left,,,,,3,6,30,3,,,,,,,,,,,,,,,,,,,,,,,0,163.71198294695932,None,None,163.71198294695932,None,165.17911568004638,None,165.17911568004638,None,j,1,1.767157380003482,165.17911568004638,None,None,165.17911568004638,None,,,,,,1,2,2020_Nov_07_1843,global_local,2020.2.4,60.13964124961991,
1,2,smallHcongr,Stimuli/HofH2.jpg,f,right,,,,,3,7,31,4,,,,,,,,,,,,,,,,,,,,,,,0,166.9786442919867,None,None,166.9786442919867,None,168.56203095498495,None,168.56203095498495,None,f,1,1.1087503529852256,168.56203095498495,None,None,168.56203095498495,None,,,,,,1,2,2020_Nov_07_1843,global_local,2020.2.4,60.13964124961991,
1,1,smallHcongr,Stimuli/HofH2.jpg,f,left,,,,,4,0,32,0,,,,,,,,,,,,,,,,,,,,,,,0,169.69544407504145,None,None,169.69544407504145,None,171.26239454804454,None,171.26239454804454,None,f,1,1.0554863619618118,171.26239454804454,None,None,171.26239454804454,None,,,,,,1,2,2020_Nov_07_1843,global_local,2020.2.4,60.13964124961991,
1,6,smallScongr,Stimuli/SofS2.jpg,j,right,,,,,4,1,33,6,,,,,,,,,,,,,,,,,,,,,,,0,172.34529368695803,None,None,172.34529368695803,None,173.6118578580208,None,173.6118578580208,None,j,1,0.5301470319973305,173.6118578580208,None,None,173.6118578580208,None,,,,,,1,2,2020_Nov_07_1843,global_local,2020.2.4,60.13964124961991,
1,4,smallHincon,Stimuli/SofH2.jpg,f,right,,,,,4,2,34,5,,,,,,,,,,,,,,,,,,,,,,,0,174.162059289054,None,None,174.162059289054,None,175.44540938397404,None,175.44540938397404,None,f,1,0.5360232379753143,175.44540938397404,None,None,175.44540938397404,None,,,,,,1,2,2020_Nov_07_1843,global_local,2020.2.4,60.13964124961991,
1,1,smallHcongr,Stimuli/HofH2.jpg,f,left,,,,,4,3,35,0,,,,,,,,,,,,,,,,,,,,,,,0,176.0122242589714,None,None,176.0122242589714,None,177.56234259705525,None,177.56234259705525,None,f,1,0.4818323759827763,177.56234259705525,None,None,177.56234259705525,None,,,,,,1,2,2020_Nov_07_1843,global_local,2020.2.4,60.13964124961991,
1,8,smallSincon,Stimuli/HofS2.jpg,j,right,,,,,4,4,36,7,,,,,,,,,,,,,,,,,,,,,,,0,178.06246417597868,None,None,178.06246417597868,None,179.66225775296334,None,179.66225775296334,None,j,1,0.4067553309723735,179.66225775296334,None,None,179.66225775296334,None,,,,,,1,2,2020_Nov_07_1843,global_local,2020.2.4,60.13964124961991,
1,7,smallSincon,Stimuli/HofS2.jpg,j,left,,,,,4,5,37,3,,,,,,,,,,,,,,,,,,,,,,,0,180.09542494104244,None,None,180.09542494104244,None,181.62882042198908,None,181.62882042198908,None,j,1,0.7659919739235193,181.62882042198908,None,None,181.62882042198908,None,,,,,,1,2,2020_Nov_07_1843,global_local,2020.2.4,60.13964124961991,
1,4,smallHincon,Stimuli/SofH2.jpg,f,right,,,,,4,6,38,5,,,,,,,,,,,,,,,,,,,,,,,0,182.41225876600947,None,None,182.41225876600947,None,183.69545990100596,None,183.69545990100596,None,f,1,0.31748364900704473,183.69545990100596,None,None,183.69545990100596,None,,,,,,1,2,2020_Nov_07_1843,global_local,2020.2.4,60.13964124961991,
1,5,smallScongr,Stimuli/SofS2.jpg,j,left,,,,,4,7,39,2,,,,,,,,,,,,,,,,,,,,,,,1,184.04539514204953,None,space,184.04539514204953,None,185.67882894200739,None,185.67882894200739,None,f,0,0.7364754111040384,185.67882894200739,None,None,185.67882894200739,None,0.7683838660595939,,,,,1,2,2020_Nov_07_1843,global_local,2020.2.4,60.13964124961991,
1,1,smallHcongr,Stimuli/HofH2.jpg,f,left,,,,,5,0,40,0,,,,,,,,,,,,,,,,,,,,,,,0,186.44541268702596,None,None,186.44541268702596,None,187.9787015139591,None,187.9787015139591,None,j,0,0.6233711470849812,187.9787015139591,None,None,187.9787015139591,None,,,,,,1,2,2020_Nov_07_1843,global_local,2020.2.4,60.13964124961991,
1,4,smallHincon,Stimuli/SofH2.jpg,f,right,,,,,5,1,41,5,,,,,,,,,,,,,,,,,,,,,,,0,188.62878511904273,None,None,188.62878511904273,None,190.3288430820685,None,190.3288430820685,None,j,0,0.045665423036552966,190.3288430820685,None,None,190.3288430820685,None,,,,,,1,2,2020_Nov_07_1843,global_local,2020.2.4,60.13964124961991,
1,7,smallSincon,Stimuli/HofS2.jpg,j,left,,,,,5,2,42,3,,,,,,,,,,,,,,,,,,,,,,,0,190.3954348390689,None,None,190.3954348390689,None,192.11222627502866,None,192.11222627502866,None,j,1,0.11997908097691834,192.11222627502866,None,None,192.11222627502866,None,,,,,,1,2,2020_Nov_07_1843,global_local,2020.2.4,60.13964124961991,
1,4,smallHincon,Stimuli/SofH2.jpg,f,right,,,,,5,3,43,5,,,,,,,,,,,,,,,,,,,,,,,0,192.26239797996823,None,None,192.26239797996823,None,193.79550613299944,None,193.79550613299944,None,f,1,0.07594396406784654,193.79550613299944,None,None,193.79550613299944,None,,,,,,1,2,2020_Nov_07_1843,global_local,2020.2.4,60.13964124961991,
1,5,smallScongr,Stimuli/SofS2.jpg,j,left,,,,,5,4,44,2,,,,,,,,,,,,,,,,,,,,,,,0,193.89548554900102,None,None,193.89548554900102,None,195.52886313700583,None,195.52886313700583,None,j,1,0.13023041689302772,195.52886313700583,None,None,195.52886313700583,None,,,,,,1,2,2020_Nov_07_1843,global_local,2020.2.4,60.13964124961991,
1,2,smallHcongr,Stimuli/HofH2.jpg,f,right,,,,,5,5,45,4,,,,,,,,,,,,,,,,,,,,,,,0,195.67913134000264,None,None,195.67913134000264,None,197.04577749304008,None,197.04577749304008,None,f,1,0.5913722920231521,197.04577749304008,None,None,197.04577749304008,None,,,,,,1,2,2020_Nov_07_1843,global_local,2020.2.4,60.13964124961991,
1,1,smallHcongr,Stimuli/HofH2.jpg,f,left,,,,,5,6,46,0,,,,,,,,,,,,,,,,,,,,,,,0,197.66252999799326,None,None,197.66252999799326,None,199.0289683380397,None,199.0289683380397,None,f,1,0.8574523210991174,199.0289683380397,None,None,199.0289683380397,None,,,,,,1,2,2020_Nov_07_1843,global_local,2020.2.4,60.13964124961991,
1,3,smallHincon,Stimuli/SofH2.jpg,f,left,,,,,5,7,47,1,,,,,,,,,,,,,,,,,,,,,,,1,199.9121818820713,None,space,199.9121818820713,None,201.2122822300298,None,201.2122822300298,None,f,1,0.8982944660820067,201.2122822300298,None,None,201.2122822300298,None,0.8659733840031549,,,,,1,2,2020_Nov_07_1843,global_local,2020.2.4,60.13964124961991,
1,2,smallHcongr,Stimuli/HofH2.jpg,f,right,,,,,6,0,48,4,,,,,,,,,,,,,,,,,,,,,,,0,202.1289533850504,None,None,202.1289533850504,None,203.61240426904988,None,203.61240426904988,None,f,1,0.4835902869235724,203.61240426904988,None,None,203.61240426904988,None,,,,,,1,2,2020_Nov_07_1843,global_local,2020.2.4,60.13964124961991,
1,4,smallHincon,Stimuli/SofH2.jpg,f,right,,,,,6,1,49,5,,,,,,,,,,,,,,,,,,,,,,,0,204.12886200495996,None,None,204.12886200495996,None,205.56253515102435,None,205.56253515102435,None,f,1,0.35707337502390146,205.56253515102435,None,None,205.56253515102435,None,,,,,,1,2,2020_Nov_07_1843,global_local,2020.2.4,60.13964124961991,
1,3,smallHincon,Stimuli/SofH2.jpg,f,left,,,,,6,2,50,1,,,,,,,,,,,,,,,,,,,,,,,0,205.94563918397762,None,None,205.94563918397762,None,207.44561331206933,None,207.44561331206933,None,f,1,0.37372454698197544,207.44561331206933,None,None,207.44561331206933,None,,,,,,1,2,2020_Nov_07_1843,global_local,2020.2.4,60.13964124961991,
1,4,smallHincon,Stimuli/SofH2.jpg,f,right,,,,,6,3,51,5,,,,,,,,,,,,,,,,,,,,,,,0,207.84564608801156,None,None,207.84564608801156,None,209.41235074505676,None,209.41235074505676,None,f,1,0.067364934948273,209.41235074505676,None,None,209.41235074505676,None,,,,,,1,2,2020_Nov_07_1843,global_local,2020.2.4,60.13964124961991,
1,1,smallHcongr,Stimuli/HofH2.jpg,f,left,,,,,6,4,52,0,,,,,,,,,,,,,,,,,,,,,,,0,209.49586288898718,None,None,209.49586288898718,None,211.212298481958,None,211.212298481958,None,f,1,0.32465761702042073,211.212298481958,None,None,211.212298481958,None,,,,,,1,2,2020_Nov_07_1843,global_local,2020.2.4,60.13964124961991,
1,1,smallHcongr,Stimuli/HofH2.jpg,f,left,,,,,6,5,53,0,,,,,,,,,,,,,,,,,,,,,,,0,211.56245329603553,None,None,211.56245329603553,None,213.21229070599657,None,213.21229070599657,None,f,1,0.30669798399321735,213.21229070599657,None,None,213.21229070599657,None,,,,,,1,2,2020_Nov_07_1843,global_local,2020.2.4,60.13964124961991,
1,3,smallHincon,Stimuli/SofH2.jpg,f,left,,,,,6,6,54,1,,,,,,,,,,,,,,,,,,,,,,,0,213.54598662396893,None,None,213.54598662396893,None,215.112265149015,None,215.112265149015,None,f,1,0.2840530320536345,215.112265149015,None,None,215.112265149015,None,,,,,,1,2,2020_Nov_07_1843,global_local,2020.2.4,60.13964124961991,
1,3,smallHincon,Stimuli/SofH2.jpg,f,left,,,,,6,7,55,1,,,,,,,,,,,,,,,,,,,,,,,0,215.4124939229805,None,None,215.4124939229805,None,216.69591335800942,None,216.69591335800942,None,f,1,0.2937348550185561,216.69591335800942,None,None,216.69591335800942,None,,,,,,1,2,2020_Nov_07_1843,global_local,2020.2.4,60.13964124961991,
1,1,smallHcongr,Stimuli/HofH2.jpg,f,left,,,,,7,0,56,0,,,,,,,,,,,,,,,,,,,,,,,0,217.01243823906407,None,None,217.01243823906407,None,218.56243832001928,None,218.56243832001928,None,f,1,0.18236932205036283,218.56243832001928,None,None,218.56243832001928,None,,,,,,1,2,2020_Nov_07_1843,global_local,2020.2.4,60.13964124961991,
1,7,smallSincon,Stimuli/HofS2.jpg,j,left,,,,,7,1,57,3,,,,,,,,,,,,,,,,,,,,,,,1,218.76238781097345,None,space,218.76238781097345,None,220.44576297106687,None,220.44576297106687,None,f,0,0.7134829299757257,220.44576297106687,None,None,220.44576297106687,None,1.0325220589293167,,,,,1,2,2020_Nov_07_1843,global_local,2020.2.4,60.13964124961991,
1,2,smallHcongr,Stimuli/HofH2.jpg,f,right,,,,,7,2,58,4,,,,,,,,,,,,,,,,,,,,,,,0,221.17924139997922,None,None,221.17924139997922,None,222.92909011396114,None,222.92909011396114,None,f,1,0.5190776269882917,222.92909011396114,None,None,222.92909011396114,None,,,,,,1,2,2020_Nov_07_1843,global_local,2020.2.4,60.13964124961991,
1,7,smallSincon,Stimuli/HofS2.jpg,j,left,,,,,7,3,59,3,,,,,,,,,,,,,,,,,,,,,,,0,223.47921486303676,None,None,223.47921486303676,None,224.87933023099322,None,224.87933023099322,None,f,0,0.09659931901842356,224.87933023099322,None,None,224.87933023099322,None,,,,,,1,2,2020_Nov_07_1843,global_local,2020.2.4,60.13964124961991,
1,3,smallHincon,Stimuli/SofH2.jpg,f,left,,,,,7,4,60,1,,,,,,,,,,,,,,,,,,,,,,,0,224.99579242500477,None,None,224.99579242500477,None,226.61291074496694,None,226.61291074496694,None,f,1,0.3685384460259229,226.61291074496694,None,None,226.61291074496694,None,,,,,,1,2,2020_Nov_07_1843,global_local,2020.2.4,60.13964124961991,
1,6,smallScongr,Stimuli/SofS2.jpg,j,right,,,,,7,5,61,6,,,,,,,,,,,,,,,,,,,,,,,0,227.01230848801788,None,None,227.01230848801788,None,228.39587603905238,None,228.39587603905238,None,j,1,0.29008026397787035,228.39587603905238,None,None,228.39587603905238,None,,,,,,1,2,2020_Nov_07_1843,global_local,2020.2.4,60.13964124961991,
1,7,smallSincon,Stimuli/HofS2.jpg,j,left,,,,,7,6,62,3,,,,,,,,,,,,,,,,,,,,,,,0,228.71232370100915,None,None,228.71232370100915,None,230.36302452301607,None,230.36302452301607,None,f,0,0.44298668298870325,230.36302452301607,None,None,230.36302452301607,None,,,,,,1,2,2020_Nov_07_1843,global_local,2020.2.4,60.13964124961991,
1,8,smallSincon,Stimuli/HofS2.jpg,j,right,,,,,7,7,63,7,,,,,,,,,,,,,,,,,,,,,,,0,230.82911019097082,None,None,230.82911019097082,None,232.19570878404193,None,232.19570878404193,None,f,0,0.2804656120715663,232.19570878404193,None,None,232.19570878404193,None,,,,,,1,2,2020_Nov_07_1843,global_local,2020.2.4,60.13964124961991,
1,4,smallHincon,Stimuli/SofH2.jpg,f,right,,,,,8,0,64,5,,,,,,,,,,,,,,,,,,,,,,,0,232.4958308209898,None,None,232.4958308209898,None,233.84580237197224,None,233.84580237197224,None,j,0,0.44610427401494235,233.84580237197224,None,None,233.84580237197224,None,,,,,,1,2,2020_Nov_07_1843,global_local,2020.2.4,60.13964124961991,
1,8,smallSincon,Stimuli/HofS2.jpg,j,right,,,,,8,1,65,7,,,,,,,,,,,,,,,,,,,,,,,0,234.31241433206014,None,None,234.31241433206014,None,235.89579982904252,None,235.89579982904252,None,j,1,0.02975221094675362,235.89579982904252,None,None,235.89579982904252,None,,,,,,1,2,2020_Nov_07_1843,global_local,2020.2.4,60.13964124961991,
1,1,smallHcongr,Stimuli/HofH2.jpg,f,left,,,,,8,2,66,0,,,,,,,,,,,,,,,,,,,,,,,0,235.9460375800263,None,None,235.9460375800263,None,237.22920048807282,None,237.22920048807282,None,f,1,0.8889277840498835,237.22920048807282,None,None,237.22920048807282,None,,,,,,1,2,2020_Nov_07_1843,global_local,2020.2.4,60.13964124961991,
1,5,smallScongr,Stimuli/SofS2.jpg,j,left,,,,,8,3,67,2,,,,,,,,,,,,,,,,,,,,,,,0,238.14581962896045,None,None,238.14581962896045,None,239.74579176702537,None,239.74579176702537,None,j,1,0.13080243894364685,239.74579176702537,None,None,239.74579176702537,None,,,,,,1,2,2020_Nov_07_1843,global_local,2020.2.4,60.13964124961991,
1,7,smallSincon,Stimuli/HofS2.jpg,j,left,,,,,8,4,68,3,,,,,,,,,,,,,,,,,,,,,,,0,239.89599089196417,None,None,239.89599089196417,None,241.54584572697058,None,241.54584572697058,None,f,0,0.207399099948816,241.54584572697058,None,None,241.54584572697058,None,,,,,,1,2,2020_Nov_07_1843,global_local,2020.2.4,60.13964124961991,
1,1,smallHcongr,Stimuli/HofH2.jpg,f,left,,,,,8,5,69,0,,,,,,,,,,,,,,,,,,,,,,,1,241.779215077986,None,space,241.779215077986,None,243.4957346370211,None,243.4957346370211,None,f,1,0.3390522060217336,243.4957346370211,None,None,243.4957346370211,None,1.315610122983344,,,,,1,2,2020_Nov_07_1843,global_local,2020.2.4,60.13964124961991,
1,3,smallHincon,Stimuli/SofH2.jpg,f,left,,,,,8,6,70,1,,,,,,,,,,,,,,,,,,,,,,,0,243.86264751898125,None,None,243.86264751898125,None,245.59599949303083,None,245.59599949303083,None,j,0,0.4365915840025991,245.59599949303083,None,None,245.59599949303083,None,,,,,,1,2,2020_Nov_07_1843,global_local,2020.2.4,60.13964124961991,
1,2,smallHcongr,Stimuli/HofH2.jpg,f,right,,,,,8,7,71,4,,,,,,,,,,,,,,,,,,,,,,,0,246.06262959400192,None,None,246.06262959400192,None,247.57958432100713,None,247.57958432100713,None,f,1,0.6458386959275231,247.57958432100713,None,None,247.57958432100713,None,,,,,,1,2,2020_Nov_07_1843,global_local,2020.2.4,60.13964124961991,
1,4,smallHincon,Stimuli/SofH2.jpg,f,right,,,,,9,0,72,5,,,,,,,,,,,,,,,,,,,,,,,0,248.24605480895843,None,None,248.24605480895843,None,249.67915182502475,None,249.67915182502475,None,f,1,0.1898562730057165,249.67915182502475,None,None,249.67915182502475,None,,,,,,1,2,2020_Nov_07_1843,global_local,2020.2.4,60.13964124961991,
1,2,smallHcongr,Stimuli/HofH2.jpg,f,right,,,,,9,1,73,4,,,,,,,,,,,,,,,,,,,,,,,0,249.8960578390397,None,None,249.8960578390397,None,251.3124843609985,None,251.3124843609985,None,f,1,0.6931113540194929,251.3124843609985,None,None,251.3124843609985,None,,,,,,1,2,2020_Nov_07_1843,global_local,2020.2.4,60.13964124961991,
1,5,smallScongr,Stimuli/SofS2.jpg,j,left,,,,,9,2,74,2,,,,,,,,,,,,,,,,,,,,,,,0,252.0292509960709,None,None,252.0292509960709,None,253.76264213502873,None,253.76264213502873,None,f,0,0.3145897799404338,253.76264213502873,None,None,253.76264213502873,None,,,,,,1,2,2020_Nov_07_1843,global_local,2020.2.4,60.13964124961991,
1,8,smallSincon,Stimuli/HofS2.jpg,j,right,,,,,9,3,75,7,,,,,,,,,,,,,,,,,,,,,,,0,254.0967183880275,None,None,254.0967183880275,None,255.77932885405608,None,255.77932885405608,None,f,0,0.04558094602543861,255.77932885405608,None,None,255.77932885405608,None,,,,,,1,2,2020_Nov_07_1843,global_local,2020.2.4,60.13964124961991,
1,1,smallHcongr,Stimuli/HofH2.jpg,f,left,,,,,9,4,76,0,,,,,,,,,,,,,,,,,,,,,,,0,255.8458680830663,None,None,255.8458680830663,None,257.496183205978,None,257.496183205978,None,j,0,0.443098988966085,257.496183205978,None,None,257.496183205978,None,,,,,,1,2,2020_Nov_07_1843,global_local,2020.2.4,60.13964124961991,
1,6,smallScongr,Stimuli/SofS2.jpg,j,right,,,,,9,5,77,6,,,,,,,,,,,,,,,,,,,,,,,1,257.96262156497687,None,space,257.96262156497687,None,259.39616707595997,None,259.39616707595997,None,j,1,0.4212515939725563,259.39616707595997,None,None,259.39616707595997,None,1.027793042943813,,,,,1,2,2020_Nov_07_1843,global_local,2020.2.4,60.13964124961991,
1,8,smallSincon,Stimuli/HofS2.jpg,j,right,,,,,9,6,78,7,,,,,,,,,,,,,,,,,,,,,,,0,259.84580331505276,None,None,259.84580331505276,None,261.1128630010644,None,261.1128630010644,None,f,0,0.3453788220649585,261.1128630010644,None,None,261.1128630010644,None,,,,,,1,2,2020_Nov_07_1843,global_local,2020.2.4,60.13964124961991,
1,5,smallScongr,Stimuli/SofS2.jpg,j,left,,,,,9,7,79,2,,,,,,,,,,,,,,,,,,,,,,,0,261.47940714203287,None,None,261.47940714203287,None,263.11292263900395,None,263.11292263900395,None,f,0,0.3478653649799526,263.11292263900395,None,None,263.11292263900395,None,,,,,,1,2,2020_Nov_07_1843,global_local,2020.2.4,60.13964124961991,
1,4,smallHincon,Stimuli/SofH2.jpg,f,right,,,,,10,0,80,5,,,,,,,,,,,,,,,,,,,,,,,0,263.4792638430372,None,None,263.4792638430372,None,264.77924984903075,None,264.77924984903075,None,j,0,0.36600157897919416,264.77924984903075,None,None,264.77924984903075,None,,,,,,1,2,2020_Nov_07_1843,global_local,2020.2.4,60.13964124961991,
1,2,smallHcongr,Stimuli/HofH2.jpg,f,right,,,,,10,1,81,4,,,,,,,,,,,,,,,,,,,,,,,1,265.1627029250376,None,space,265.1627029250376,None,266.779294330976,None,266.779294330976,None,f,1,0.5525944440159947,266.779294330976,None,None,266.779294330976,None,0.9545810400741175,,,,,1,2,2020_Nov_07_1843,global_local,2020.2.4,60.13964124961991,
1,8,smallSincon,Stimuli/HofS2.jpg,j,right,,,,,10,2,82,7,,,,,,,,,,,,,,,,,,,,,,,0,267.3627368710004,None,None,267.3627368710004,None,268.6793127639685,None,268.6793127639685,None,j,1,0.42981291306205094,268.6793127639685,None,None,268.6793127639685,None,,,,,,1,2,2020_Nov_07_1843,global_local,2020.2.4,60.13964124961991,
1,4,smallHincon,Stimuli/SofH2.jpg,f,right,,,,,10,3,83,5,,,,,,,,,,,,,,,,,,,,,,,0,269.1292991070077,None,None,269.1292991070077,None,270.8127428339794,None,270.8127428339794,None,j,0,0.3438295859377831,270.8127428339794,None,None,270.8127428339794,None,,,,,,1,2,2020_Nov_07_1843,global_local,2020.2.4,60.13964124961991,
1,5,smallScongr,Stimuli/SofS2.jpg,j,left,,,,,10,4,84,2,,,,,,,,,,,,,,,,,,,,,,,0,271.17937394604087,None,None,271.17937394604087,None,272.51286546105985,None,272.51286546105985,None,f,0,0.3115757260238752,272.51286546105985,None,None,272.51286546105985,None,,,,,,1,2,2020_Nov_07_1843,global_local,2020.2.4,60.13964124961991,
1,1,smallHcongr,Stimuli/HofH2.jpg,f,left,,,,,10,5,85,0,,,,,,,,,,,,,,,,,,,,,,,0,272.84602226200514,None,None,272.84602226200514,None,274.3799411969958,None,274.3799411969958,None,f,1,0.5286045250250027,274.3799411969958,None,None,274.3799411969958,None,,,,,,1,2,2020_Nov_07_1843,global_local,2020.2.4,60.13964124961991,
1,3,smallHincon,Stimuli/SofH2.jpg,f,left,,,,,10,6,86,1,,,,,,,,,,,,,,,,,,,,,,,0,274.9293305850588,None,None,274.9293305850588,None,276.2129741120152,None,276.2129741120152,None,f,1,1.4883807969745249,276.2129741120152,None,None,276.2129741120152,None,,,,,,1,2,2020_Nov_07_1843,global_local,2020.2.4,60.13964124961991,
1,8,smallSincon,Stimuli/HofS2.jpg,j,right,,,,,10,7,87,7,,,,,,,,,,,,,,,,,,,,,,,1,277.72945308696944,None,None,277.72945308696944,None,279.0627898040693,None,279.0627898040693,None,f,0,0.30666434904560447,279.0627898040693,None,None,279.0627898040693,None,,,,,,1,2,2020_Nov_07_1843,global_local,2020.2.4,60.13964124961991,
1,3,smallHincon,Stimuli/SofH2.jpg,f,left,,,,,11,0,88,1,,,,,,,,,,,,,,,,,,,,,,,0,279.3960533370264,None,None,279.3960533370264,None,281.0130516879726,None,281.0130516879726,None,j,0,0.29671313893049955,281.0130516879726,None,None,281.0130516879726,None,,,,,,1,2,2020_Nov_07_1843,global_local,2020.2.4,60.13964124961991,
1,2,smallHcongr,Stimuli/HofH2.jpg,f,right,,,,,11,1,89,4,,,,,,,,,,,,,,,,,,,,,,,0,281.3294388940558,None,None,281.3294388940558,None,282.8463355610147,None,282.8463355610147,None,f,1,0.055647382978349924,282.8463355610147,None,None,282.8463355610147,None,,,,,,1,2,2020_Nov_07_1843,global_local,2020.2.4,60.13964124961991,
1,2,smallHcongr,Stimuli/HofH2.jpg,f,right,,,,,11,2,90,4,,,,,,,,,,,,,,,,,,,,,,,0,282.92970160907134,None,None,282.92970160907134,None,284.62944506201893,None,284.62944506201893,None,f,1,0.4800629550591111,284.62944506201893,None,None,284.62944506201893,None,,,,,,1,2,2020_Nov_07_1843,global_local,2020.2.4,60.13964124961991,
1,5,smallScongr,Stimuli/SofS2.jpg,j,left,,,,,11,3,91,2,,,,,,,,,,,,,,,,,,,,,,,0,285.1294346860377,None,None,285.1294346860377,None,286.62945251807105,None,286.62945251807105,None,j,1,0.6025284819770604,286.62945251807105,None,None,286.62945251807105,None,,,,,,1,2,2020_Nov_07_1843,global_local,2020.2.4,60.13964124961991,
1,6,smallScongr,Stimuli/SofS2.jpg,j,right,,,,,11,4,92,6,,,,,,,,,,,,,,,,,,,,,,,0,287.26300923898816,None,None,287.26300923898816,None,288.7129979140591,None,288.7129979140591,None,j,1,1.2036461719544604,288.7129979140591,None,None,288.7129979140591,None,,,,,,1,2,2020_Nov_07_1843,global_local,2020.2.4,60.13964124961991,
1,5,smallScongr,Stimuli/SofS2.jpg,j,left,,,,,11,5,93,2,,,,,,,,,,,,,,,,,,,,,,,0,289.94617547502276,None,None,289.94617547502276,None,291.22965951403603,None,291.22965951403603,None,j,1,0.5839469709899276,291.22965951403603,None,None,291.22965951403603,None,,,,,,1,2,2020_Nov_07_1843,global_local,2020.2.4,60.13964124961991,
1,6,smallScongr,Stimuli/SofS2.jpg,j,right,,,,,11,6,94,6,,,,,,,,,,,,,,,,,,,,,,,0,291.84643595002126,None,None,291.84643595002126,None,293.279600622016,None,293.279600622016,None,j,1,0.47234302305150777,293.279600622016,None,None,293.279600622016,None,,,,,,1,2,2020_Nov_07_1843,global_local,2020.2.4,60.13964124961991,
1,7,smallSincon,Stimuli/HofS2.jpg,j,left,,,,,11,7,95,3,,,,,,,,,,,,,,,,,,,,,,,0,293.7795889680274,None,None,293.7795889680274,None,295.3462628789712,None,295.3462628789712,None,j,1,3.2984885149635375,295.3462628789712,None,None,295.3462628789712,None,,,,,,1,2,2020_Nov_07_1843,global_local,2020.2.4,60.13964124961991,
,,,,,,,,,,,,,,,,,,,,303.79627937905025,None,f,0,1.4039012580178678,,,,,,,,,,,,,,,,,,,,,,,,,,,,,,,298.6629156990675,None,,,1,2,2020_Nov_07_1843,global_local,2020.2.4,60.13964124961991,
,,,,,,,,,,,,,,,,,,,,,,,,,,,,,,,,,,,,,,,,,,,,,,,,,,,,,,,,,1,,,,,,,,
