runID,imgID,stimLabel,imFile,corr,side,repeats.thisRepN,repeats.thisTrialN,repeats.thisN,repeats.thisIndex,prac_trials_run1.thisRepN,prac_trials_run1.thisTrialN,prac_trials_run1.thisN,prac_trials_run1.thisIndex,trials_run1.thisRepN,trials_run1.thisTrialN,trials_run1.thisN,trials_run1.thisIndex,X Scale,Y Scale,text_8.started,text_8.stopped,hand_hold_resp.keys,hand_hold_resp.corr,hand_hold_resp.rt,fixpR1,prac_resp.keys,prac_resp.corr,prac_resp.rt,prac_fix_resp.keys,prac_fix_resp.corr,feedback_msg.started,feedback_msg.stopped,prac_fix_resp.rt,fixR1,text_2.started,text_2.stopped,fix_resp1_1.keys,fix_resp1_1.corr,fix_resp1_1.started,fix_resp1_1.stopped,text_6.started,text_6.stopped,trial_image.started,trial_image.stopped,trial_resp.keys,trial_resp.corr,trial_resp.rt,trial_resp.started,trial_resp.stopped,fix_resp_2.keys,fix_resp_2.started,fix_resp_2.stopped,fix_resp1_1.rt,fix_resp_2.rt,participant,design,position,date,expName,psychopyVersion,frameRate,
,,,,,,,,,,,,,,,,,,0.05,0.05,42.32410148717463,None,j,1,0.8163217450492084,,,,,,,,,,,,,,,,,,,,,,,,,,,,,,,,1,2,2020_Dec_29_0934,global_local,2020.2.4,None,
1,1,smallHcongr,Stimuli/HofH2.jpg,f,left,0,0,0,0,0,0,0,2,,,,,,,,,,,,0,f,1,0.7085957489907742,None,1,51.526352955028415,None,,,,,,,,,,,,,,,,,,,,,,,,1,2,2020_Dec_29_0934,global_local,2020.2.4,None,
1,6,smallScongr,Stimuli/SofS2.jpg,j,right,0,0,0,0,0,1,1,1,,,,,,,,,,,,1,j,1,0.7492630262859166,space,1,58.841161558870226,None,0.409368347376585,,,,,,,,,,,,,,,,,,,,,,,1,2,2020_Dec_29_0934,global_local,2020.2.4,None,
1,3,smallHincon,Stimuli/SofH2.jpg,f,left,0,0,0,0,0,2,2,4,,,,,,,,,,,,0,f,1,1.0870758751407266,None,1,66.14148423681036,None,,,,,,,,,,,,,,,,,,,,,,,,1,2,2020_Dec_29_0934,global_local,2020.2.4,None,
1,4,smallHincon,Stimuli/SofH2.jpg,f,right,0,0,0,0,0,3,3,5,,,,,,,,,,,,0,f,1,0.7855042219161987,None,1,73.65801528794691,None,,,,,,,,,,,,,,,,,,,,,,,,1,2,2020_Dec_29_0934,global_local,2020.2.4,None,
1,2,smallHcongr,Stimuli/HofH2.jpg,f,right,0,0,0,0,0,4,4,3,,,,,,,,,,,,1,f,1,0.6916159591637552,space,1,81.35787424305454,None,-0.588509411085397,,,,,,,,,,,,,,,,,,,,,,,1,2,2020_Dec_29_0934,global_local,2020.2.4,None,
1,5,smallScongr,Stimuli/SofS2.jpg,j,left,0,0,0,0,0,5,5,0,,,,,,,,,,,,0,j,1,2.2439295733347535,None,1,89.0914586908184,None,,,,,,,,,,,,,,,,,,,,,,,,1,2,2020_Dec_29_0934,global_local,2020.2.4,None,
1,2,smallHcongr,Stimuli/HofH2.jpg,f,right,,,,,,,,,0,0,0,4,,,,,,,,,,,,,,,,,0,124.27655352512375,None,None,1,124.27655352512375,None,125.5419989740476,None,125.5419989740476,None,f,1,1.4636005847714841,125.5419989740476,None,None,125.5419989740476,None,,,,1,2,2020_Dec_29_0934,global_local,2020.2.4,None,
1,7,smallSincon,Stimuli/HofS2.jpg,j,left,,,,,,,,,0,1,1,3,,,,,,,,,,,,,,,,,0,127.02497539808974,None,None,1,127.02497539808974,None,128.72478104382753,None,128.72478104382753,None,j,1,0.7274856641888618,128.72478104382753,None,None,128.72478104382753,None,,,,1,2,2020_Dec_29_0934,global_local,2020.2.4,None,
1,8,smallSincon,Stimuli/HofS2.jpg,j,right,,,,,,,,,0,2,2,7,,,,,,,,,,,,,,,,,0,129.47502618888393,None,None,1,129.47502618888393,None,131.0581962489523,None,131.0581962489523,None,f,0,0.6426060600206256,131.0581962489523,None,None,131.0581962489523,None,,,,1,2,2020_Dec_29_0934,global_local,2020.2.4,None,
1,5,smallScongr,Stimuli/SofS2.jpg,j,left,,,,,,,,,0,3,3,2,,,,,,,,,,,,,,,,,1,131.72515092417598,None,space,1,131.72515092417598,None,133.10882584098727,None,133.10882584098727,None,j,1,0.8343931613489985,133.10882584098727,None,None,133.10882584098727,None,0.7815217729657888,,,1,2,2020_Dec_29_0934,global_local,2020.2.4,None,
1,8,smallSincon,Stimuli/HofS2.jpg,j,right,,,,,,,,,0,4,4,7,,,,,,,,,,,,,,,,,1,133.9588358332403,None,space,1,133.9588358332403,None,135.6753018712625,None,135.6753018712625,None,j,1,0.6944198398850858,135.6753018712625,None,None,135.6753018712625,None,0.607563226018101,,,1,2,2020_Dec_29_0934,global_local,2020.2.4,None,
1,1,smallHcongr,Stimuli/HofH2.jpg,f,left,,,,,,,,,0,5,5,0,,,,,,,,,,,,,,,,,0,136.3917987709865,None,None,1,136.3917987709865,None,137.70852022990584,None,137.70852022990584,None,f,1,0.6295531750656664,137.70852022990584,None,None,137.70852022990584,None,,,,1,2,2020_Dec_29_0934,global_local,2020.2.4,None,
1,6,smallScongr,Stimuli/SofS2.jpg,j,right,,,,,,,,,0,6,6,6,,,,,,,,,,,,,,,,,0,138.35819943482056,None,None,1,138.35819943482056,None,140.09187401505187,None,140.09187401505187,None,j,1,0.6164243561215699,140.09187401505187,None,None,140.09187401505187,None,,,,1,2,2020_Dec_29_0934,global_local,2020.2.4,None,
1,2,smallHcongr,Stimuli/HofH2.jpg,f,right,,,,,,,,,0,7,7,4,,,,,,,,,,,,,,,,,0,140.725373046007,None,None,1,140.725373046007,None,142.07525256089866,None,142.07525256089866,None,f,1,0.8498923829756677,142.07525256089866,None,None,142.07525256089866,None,,,,1,2,2020_Dec_29_0934,global_local,2020.2.4,None,
1,7,smallSincon,Stimuli/HofS2.jpg,j,left,,,,,,,,,1,0,8,3,,,,,,,,,,,,,,,,,0,142.94231949886307,None,None,1,142.94231949886307,None,144.2752879508771,None,144.2752879508771,None,j,1,0.6887801350094378,144.2752879508771,None,None,144.2752879508771,None,,,,1,2,2020_Dec_29_0934,global_local,2020.2.4,None,
1,3,smallHincon,Stimuli/SofH2.jpg,f,left,,,,,,,,,1,1,9,1,,,,,,,,,,,,,,,,,0,144.99196627223864,None,None,1,144.99196627223864,None,146.7089777062647,None,146.7089777062647,None,f,1,0.8207228067331016,146.7089777062647,None,None,146.7089777062647,None,,,,1,2,2020_Dec_29_0934,global_local,2020.2.4,None,
1,8,smallSincon,Stimuli/HofS2.jpg,j,right,,,,,,,,,1,2,10,7,,,,,,,,,,,,,,,,,0,147.5585064892657,None,None,1,147.5585064892657,None,149.1752501069568,None,149.1752501069568,None,j,1,0.5977371926419437,149.1752501069568,None,None,149.1752501069568,None,,,,1,2,2020_Dec_29_0934,global_local,2020.2.4,None,
1,7,smallSincon,Stimuli/HofS2.jpg,j,left,,,,,,,,,1,3,11,3,,,,,,,,,,,,,,,,,1,149.79184299195185,None,space,1,149.79184299195185,None,151.22523510316387,None,151.22523510316387,None,j,1,0.5519056892953813,151.22523510316387,None,None,151.22523510316387,None,0.6381349130533636,,,1,2,2020_Dec_29_0934,global_local,2020.2.4,None,
1,8,smallSincon,Stimuli/HofS2.jpg,j,right,,,,,,,,,1,4,12,7,,,,,,,,,,,,,,,,,0,151.7918962952681,None,None,1,151.7918962952681,None,153.45866031199694,None,153.45866031199694,None,j,1,0.5867503075860441,153.45866031199694,None,None,153.45866031199694,None,,,,1,2,2020_Dec_29_0934,global_local,2020.2.4,None,
1,7,smallSincon,Stimuli/HofS2.jpg,j,left,,,,,,,,,1,5,13,3,,,,,,,,,,,,,,,,,0,154.0756756560877,None,None,1,154.0756756560877,None,155.67546493420377,None,155.67546493420377,None,j,1,0.7499743113294244,155.67546493420377,None,None,155.67546493420377,None,,,,1,2,2020_Dec_29_0934,global_local,2020.2.4,None,
1,6,smallScongr,Stimuli/SofS2.jpg,j,right,,,,,,,,,1,6,14,6,,,,,,,,,,,,,,,,,0,156.4423640430905,None,None,1,156.4423640430905,None,157.87548849498853,None,157.87548849498853,None,j,1,0.8953381013125181,157.87548849498853,None,None,157.87548849498853,None,,,,1,2,2020_Dec_29_0934,global_local,2020.2.4,None,
1,2,smallHcongr,Stimuli/HofH2.jpg,f,right,,,,,,,,,1,7,15,4,,,,,,,,,,,,,,,,,0,158.79202374396846,None,None,1,158.79202374396846,None,160.50859527895227,None,160.50859527895227,None,f,1,0.7777605741284788,160.50859527895227,None,None,160.50859527895227,None,,,,1,2,2020_Dec_29_0934,global_local,2020.2.4,None,
1,6,smallScongr,Stimuli/SofS2.jpg,j,right,,,,,,,,,2,0,16,6,,,,,,,,,,,,,,,,,1,161.3080107648857,None,space,1,161.3080107648857,None,162.97574440483004,None,162.97574440483004,None,j,1,0.5565615319646895,162.97574440483004,None,None,162.97574440483004,None,0.5264991382136941,,,1,2,2020_Dec_29_0934,global_local,2020.2.4,None,
1,1,smallHcongr,Stimuli/HofH2.jpg,f,left,,,,,,,,,2,1,17,0,,,,,,,,,,,,,,,,,1,163.5590193560347,None,None,0,163.5590193560347,None,164.9424352478236,None,164.9424352478236,None,f,1,0.6192602086812258,164.9424352478236,None,space,164.9424352478236,None,,0.16507846117019653,,1,2,2020_Dec_29_0934,global_local,2020.2.4,None,
1,5,smallScongr,Stimuli/SofS2.jpg,j,left,,,,,,,,,2,2,18,2,,,,,,,,,,,,,,,,,0,165.59213802218437,None,None,1,165.59213802218437,None,167.15864426083863,None,167.15864426083863,None,j,1,1.2400958756916225,167.15864426083863,None,None,167.15864426083863,None,,,,1,2,2020_Dec_29_0934,global_local,2020.2.4,None,
1,8,smallSincon,Stimuli/HofS2.jpg,j,right,,,,,,,,,2,3,19,7,,,,,,,,,,,,,,,,,1,168.42527848202735,None,space,1,168.42527848202735,None,169.87530239997432,None,169.87530239997432,None,j,1,0.7127353949472308,169.87530239997432,None,None,169.87530239997432,None,0.8721472569741309,,,1,2,2020_Dec_29_0934,global_local,2020.2.4,None,
1,2,smallHcongr,Stimuli/HofH2.jpg,f,right,,,,,,,,,2,4,20,4,,,,,,,,,,,,,,,,,1,170.60869372822344,None,None,0,170.60869372822344,None,171.99219144508243,None,171.99219144508243,None,f,1,0.7191000957973301,171.99219144508243,None,space,171.99219144508243,None,,0.3265413520857692,,1,2,2020_Dec_29_0934,global_local,2020.2.4,None,
1,3,smallHincon,Stimuli/SofH2.jpg,f,left,,,,,,,,,2,5,21,1,,,,,,,,,,,,,,,,,0,172.7424089340493,None,None,1,172.7424089340493,None,174.0923623489216,None,174.0923623489216,None,f,1,0.7864487962797284,174.0923623489216,None,None,174.0923623489216,None,,,,1,2,2020_Dec_29_0934,global_local,2020.2.4,None,
1,1,smallHcongr,Stimuli/HofH2.jpg,f,left,,,,,,,,,2,6,22,0,,,,,,,,,,,,,,,,,1,174.9090443169698,None,space,1,174.9090443169698,None,176.59224545396864,None,176.59224545396864,None,f,1,1.2733187200501561,176.59224545396864,None,None,176.59224545396864,None,0.5389863336458802,,,1,2,2020_Dec_29_0934,global_local,2020.2.4,None,
1,1,smallHcongr,Stimuli/HofH2.jpg,f,left,,,,,,,,,2,7,23,0,,,,,,,,,,,,,,,,,0,177.89218296622857,None,None,1,177.89218296622857,None,179.5089758131653,None,179.5089758131653,None,f,1,0.8097576950676739,179.5089758131653,None,None,179.5089758131653,None,,,,1,2,2020_Dec_29_0934,global_local,2020.2.4,None,
1,5,smallScongr,Stimuli/SofS2.jpg,j,left,,,,,,,,,3,0,24,2,,,,,,,,,,,,,,,,,1,180.34231228288263,None,None,0,180.34231228288263,None,181.94231941597536,None,181.94231941597536,None,j,1,1.0746352691203356,181.94231941597536,None,space,181.94231941597536,None,,0.36695338133722544,,1,2,2020_Dec_29_0934,global_local,2020.2.4,None,
1,3,smallHincon,Stimuli/SofH2.jpg,f,left,,,,,,,,,3,1,25,1,,,,,,,,,,,,,,,,,0,183.0424300362356,None,None,1,183.0424300362356,None,184.37579127587378,None,184.37579127587378,None,j,0,0.49729937920346856,184.37579127587378,None,None,184.37579127587378,None,,,,1,2,2020_Dec_29_0934,global_local,2020.2.4,None,
1,5,smallScongr,Stimuli/SofS2.jpg,j,left,,,,,,,,,3,2,26,2,,,,,,,,,,,,,,,,,0,184.8925757110119,None,None,1,184.8925757110119,None,186.34251586720347,None,186.34251586720347,None,j,1,0.7036568387411535,186.34251586720347,None,None,186.34251586720347,None,,,,1,2,2020_Dec_29_0934,global_local,2020.2.4,None,
1,6,smallScongr,Stimuli/SofS2.jpg,j,right,,,,,,,,,3,3,27,6,,,,,,,,,,,,,,,,,0,187.0755816269666,None,None,1,187.0755816269666,None,188.39229890191928,None,188.39229890191928,None,j,1,0.6033553336746991,188.39229890191928,None,None,188.39229890191928,None,,,,1,2,2020_Dec_29_0934,global_local,2020.2.4,None,
1,1,smallHcongr,Stimuli/HofH2.jpg,f,left,,,,,,,,,3,4,28,0,,,,,,,,,,,,,,,,,0,189.02561043109745,None,None,1,189.02561043109745,None,190.4589026561007,None,190.4589026561007,None,f,1,1.081063557881862,190.4589026561007,None,None,190.4589026561007,None,,,,1,2,2020_Dec_29_0934,global_local,2020.2.4,None,
1,1,smallHcongr,Stimuli/HofH2.jpg,f,left,,,,,,,,,3,5,29,0,,,,,,,,,,,,,,,,,0,191.5590411638841,None,None,1,191.5590411638841,None,193.05930322315544,None,193.05930322315544,None,f,1,0.9129334120079875,193.05930322315544,None,None,193.05930322315544,None,,,,1,2,2020_Dec_29_0934,global_local,2020.2.4,None,
1,4,smallHincon,Stimuli/SofH2.jpg,f,right,,,,,,,,,3,6,30,5,,,,,,,,,,,,,,,,,0,193.99214173480868,None,None,1,193.99214173480868,None,195.4590801820159,None,195.4590801820159,None,f,1,0.850990129634738,195.4590801820159,None,None,195.4590801820159,None,,,,1,2,2020_Dec_29_0934,global_local,2020.2.4,None,
1,4,smallHincon,Stimuli/SofH2.jpg,f,right,,,,,,,,,3,7,31,5,,,,,,,,,,,,,,,,,0,196.34238749789074,None,space,0,196.34238749789074,None,197.94159631803632,None,197.94159631803632,None,f,1,1.4825590690597892,197.94159631803632,None,None,197.94159631803632,None,0.18550819484516978,,,1,2,2020_Dec_29_0934,global_local,2020.2.4,None,
1,4,smallHincon,Stimuli/SofH2.jpg,f,right,,,,,,,,,4,0,32,5,,,,,,,,,,,,,,,,,1,199.44242160813883,None,None,0,199.44242160813883,None,201.07587694283575,None,201.07587694283575,None,f,1,1.3444383121095598,201.07587694283575,None,space,201.07587694283575,None,,0.39328047866001725,,1,2,2020_Dec_29_0934,global_local,2020.2.4,None,
1,3,smallHincon,Stimuli/SofH2.jpg,f,left,,,,,,,,,4,1,33,1,,,,,,,,,,,,,,,,,0,202.4426130792126,None,None,1,202.4426130792126,None,203.80945535516366,None,203.80945535516366,None,f,1,0.7966093090362847,203.80945535516366,None,None,203.80945535516366,None,,,,1,2,2020_Dec_29_0934,global_local,2020.2.4,None,
1,7,smallSincon,Stimuli/HofS2.jpg,j,left,,,,,,,,,4,2,34,3,,,,,,,,,,,,,,,,,0,204.62600783118978,None,None,1,204.62600783118978,None,206.142624263186,None,206.142624263186,None,j,1,0.7873490317724645,206.142624263186,None,None,206.142624263186,None,,,,1,2,2020_Dec_29_0934,global_local,2020.2.4,None,
1,4,smallHincon,Stimuli/SofH2.jpg,f,right,,,,,,,,,4,3,35,5,,,,,,,,,,,,,,,,,0,206.95898601599038,None,None,1,206.95898601599038,None,208.55910137714818,None,208.55910137714818,None,f,1,1.07243557786569,208.55910137714818,None,None,208.55910137714818,None,,,,1,2,2020_Dec_29_0934,global_local,2020.2.4,None,
1,3,smallHincon,Stimuli/SofH2.jpg,f,left,,,,,,,,,4,4,36,1,,,,,,,,,,,,,,,,,1,209.65912528382614,None,space,1,209.65912528382614,None,211.34251087810844,None,211.34251087810844,None,f,1,1.8934721508994699,211.34251087810844,None,None,211.34251087810844,None,1.4855016763322055,,,1,2,2020_Dec_29_0934,global_local,2020.2.4,None,
1,5,smallScongr,Stimuli/SofS2.jpg,j,left,,,,,,,,,4,5,37,2,,,,,,,,,,,,,,,,,0,213.25950804213062,None,None,1,213.25950804213062,None,214.94269211404026,None,214.94269211404026,None,j,1,1.1469253008253872,214.94269211404026,None,None,214.94269211404026,None,,,,1,2,2020_Dec_29_0934,global_local,2020.2.4,None,
1,3,smallHincon,Stimuli/SofH2.jpg,f,left,,,,,,,,,4,6,38,1,,,,,,,,,,,,,,,,,0,216.10945371398702,None,None,1,216.10945371398702,None,217.59251599898562,None,217.59251599898562,None,f,1,1.2883170060813427,217.59251599898562,None,None,217.59251599898562,None,,,,1,2,2020_Dec_29_0934,global_local,2020.2.4,None,
1,7,smallSincon,Stimuli/HofS2.jpg,j,left,,,,,,,,,4,7,39,3,,,,,,,,,,,,,,,,,0,218.90899295499548,None,None,1,218.90899295499548,None,220.1752333729528,None,220.1752333729528,None,j,1,0.8010920342057943,220.1752333729528,None,None,220.1752333729528,None,,,,1,2,2020_Dec_29_0934,global_local,2020.2.4,None,
1,2,smallHcongr,Stimuli/HofH2.jpg,f,right,,,,,,,,,5,0,40,4,,,,,,,,,,,,,,,,,0,221.00883632525802,None,None,1,221.00883632525802,None,222.65932676987723,None,222.65932676987723,None,f,1,0.5502721420489252,222.65932676987723,None,None,222.65932676987723,None,,,,1,2,2020_Dec_29_0934,global_local,2020.2.4,None,
1,2,smallHcongr,Stimuli/HofH2.jpg,f,right,,,,,,,,,5,1,41,4,,,,,,,,,,,,,,,,,0,223.22618061490357,None,None,1,223.22618061490357,None,224.59276566188782,None,224.59276566188782,None,f,1,0.6011172560974956,224.59276566188782,None,None,224.59276566188782,None,,,,1,2,2020_Dec_29_0934,global_local,2020.2.4,None,
1,4,smallHincon,Stimuli/SofH2.jpg,f,right,,,,,,,,,5,2,42,5,,,,,,,,,,,,,,,,,1,225.22596356319264,None,space,1,225.22596356319264,None,226.89263107907027,None,226.89263107907027,None,f,1,0.7198999808169901,226.89263107907027,None,None,226.89263107907027,None,0.6561577990651131,,,1,2,2020_Dec_29_0934,global_local,2020.2.4,None,
1,8,smallSincon,Stimuli/HofS2.jpg,j,right,,,,,,,,,5,3,43,7,,,,,,,,,,,,,,,,,0,227.64259995287284,None,None,1,227.64259995287284,None,229.2426416152157,None,229.2426416152157,None,j,1,0.9035747176967561,229.2426416152157,None,None,229.2426416152157,None,,,,1,2,2020_Dec_29_0934,global_local,2020.2.4,None,
1,5,smallScongr,Stimuli/SofS2.jpg,j,left,,,,,,,,,5,4,44,2,,,,,,,,,,,,,,,,,1,230.1759240082465,None,None,0,230.1759240082465,None,231.7424533930607,None,231.7424533930607,None,j,1,0.8359905518591404,231.7424533930607,None,None,231.7424533930607,None,,,,1,2,2020_Dec_29_0934,global_local,2020.2.4,None,
1,6,smallScongr,Stimuli/SofS2.jpg,j,right,,,,,,,,,5,5,45,6,,,,,,,,,,,,,,,,,1,232.6094349930063,None,space,1,232.6094349930063,None,234.32598880911246,None,234.32598880911246,None,j,1,0.5660742609761655,234.32598880911246,None,None,234.32598880911246,None,0.8690413730219007,,,1,2,2020_Dec_29_0934,global_local,2020.2.4,None,
1,6,smallScongr,Stimuli/SofS2.jpg,j,right,,,,,,,,,5,6,46,6,,,,,,,,,,,,,,,,,0,234.9095210712403,None,None,1,234.9095210712403,None,236.19203365501016,None,236.19203365501016,None,j,1,0.6730831707827747,236.19203365501016,None,None,236.19203365501016,None,,,,1,2,2020_Dec_29_0934,global_local,2020.2.4,None,
1,4,smallHincon,Stimuli/SofH2.jpg,f,right,,,,,,,,,5,7,47,5,,,,,,,,,,,,,,,,,0,236.89262478984892,None,None,1,236.89262478984892,None,238.29270820925012,None,238.29270820925012,None,j,0,1.3039185754023492,238.29270820925012,None,None,238.29270820925012,None,,,,1,2,2020_Dec_29_0934,global_local,2020.2.4,None,
