runID,imgID,stimLabel,imFile,corr,side,repeats.thisRepN,repeats.thisTrialN,repeats.thisN,repeats.thisIndex,prac_trials_run1.thisRepN,prac_trials_run1.thisTrialN,prac_trials_run1.thisN,prac_trials_run1.thisIndex,trials_run1.thisRepN,trials_run1.thisTrialN,trials_run1.thisN,trials_run1.thisIndex,X Scale,Y Scale,text_8.started,text_8.stopped,hand_hold_resp.keys,hand_hold_resp.corr,hand_hold_resp.rt,fixpR1,prac_resp.keys,prac_resp.corr,prac_resp.rt,prac_fix_resp.keys,prac_fix_resp.corr,feedback_msg.started,feedback_msg.stopped,prac_fix_resp.rt,fixR1,text_2.started,text_2.stopped,fix_resp1_1.keys,fix_resp1_1.corr,fix_resp1_1.started,fix_resp1_1.stopped,text_6.started,text_6.stopped,trial_image.started,trial_image.stopped,trial_resp.keys,trial_resp.corr,trial_resp.rt,trial_resp.started,trial_resp.stopped,fix_resp_2.keys,fix_resp_2.started,fix_resp_2.stopped,fix_resp1_1.rt,participant,design,position,date,expName,psychopyVersion,frameRate,
,,,,,,,,,,,,,,,,,,0.05,0.05,27.39715598663315,None,j,1,1.003684506751597,,,,,,,,,,,,,,,,,,,,,,,,,,,,,,,1,2,2020_Dec_28_2050,global_local,2020.2.4,None,
1,5,smallScongr,Stimuli/SofS2.jpg,j,left,0,0,0,0,0,0,0,0,,,,,,,,,,,,0,j,1,1.0067690429277718,None,1,41.63231177581474,None,,,,,,,,,,,,,,,,,,,,,,,1,2,2020_Dec_28_2050,global_local,2020.2.4,None,
1,7,smallSincon,Stimuli/HofS2.jpg,j,left,0,0,0,0,0,1,1,5,,,,,,,,,,,,0,None,0,,None,1,48.91580393258482,None,,,,,,,,,,,,,,,,,,,,,,,1,2,2020_Dec_28_2050,global_local,2020.2.4,None,
1,1,smallHcongr,Stimuli/HofH2.jpg,f,left,0,0,0,0,0,2,2,4,,,,,,,,,,,,0,None,0,,None,1,56.41414630180225,None,,,,,,,,,,,,,,,,,,,,,,,1,2,2020_Dec_28_2050,global_local,2020.2.4,None,
1,2,smallHcongr,Stimuli/HofH2.jpg,f,right,0,0,0,0,0,3,3,3,,,,,,,,,,,,1,f,1,1.1351362341083586,space,1,63.67999373190105,None,0.8862037449143827,,,,,,,,,,,,,,,,,,,,,,1,2,2020_Dec_28_2050,global_local,2020.2.4,None,
1,3,smallHincon,Stimuli/SofH2.jpg,f,left,0,0,0,0,0,4,4,1,,,,,,,,,,,,1,f,1,2.0282859071157873,None,0,71.08047430589795,None,,,,,,,,,,,,,,,,,,,,,,,1,2,2020_Dec_28_2050,global_local,2020.2.4,None,
1,8,smallSincon,Stimuli/HofS2.jpg,j,right,0,0,0,0,0,5,5,2,,,,,,,,,,,,0,j,1,1.166510274168104,None,1,78.78083477495238,None,,,,,,,,,,,,,,,,,,,,,,,1,2,2020_Dec_28_2050,global_local,2020.2.4,None,
1,3,smallHincon,Stimuli/SofH2.jpg,f,left,1,0,1,0,0,0,0,4,,,,,,,,,,,,0,f,1,0.7478763191029429,None,1,90.09716436779127,None,,,,,,,,,,,,,,,,,,,,,,,1,2,2020_Dec_28_2050,global_local,2020.2.4,None,
1,8,smallSincon,Stimuli/HofS2.jpg,j,right,1,0,1,0,0,1,1,2,,,,,,,,,,,,0,j,1,0.7907165819779038,space,0,97.71611638274044,None,-0.3412433611229062,,,,,,,,,,,,,,,,,,,,,,1,2,2020_Dec_28_2050,global_local,2020.2.4,None,
1,5,smallScongr,Stimuli/SofS2.jpg,j,left,1,0,1,0,0,2,2,1,,,,,,,,,,,,0,j,1,0.6078517306596041,None,1,105.2139478768222,None,,,,,,,,,,,,,,,,,,,,,,,1,2,2020_Dec_28_2050,global_local,2020.2.4,None,
1,4,smallHincon,Stimuli/SofH2.jpg,f,right,1,0,1,0,0,3,3,5,,,,,,,,,,,,1,f,1,0.8405704200267792,space,1,112.54796560201794,None,-0.4973641228862107,,,,,,,,,,,,,,,,,,,,,,1,2,2020_Dec_28_2050,global_local,2020.2.4,None,
1,2,smallHcongr,Stimuli/HofH2.jpg,f,right,1,0,1,0,0,4,4,0,,,,,,,,,,,,1,f,1,2.013390851672739,space,1,120.16454197373241,None,1.6697817398235202,,,,,,,,,,,,,,,,,,,,,,1,2,2020_Dec_28_2050,global_local,2020.2.4,None,
1,6,smallScongr,Stimuli/SofS2.jpg,j,right,1,0,1,0,0,5,5,3,,,,,,,,,,,,0,j,1,1.002962263301015,None,1,127.63137700594962,None,,,,,,,,,,,,,,,,,,,,,,,1,2,2020_Dec_28_2050,global_local,2020.2.4,None,
1,1,smallHcongr,Stimuli/HofH2.jpg,f,left,,,,,,,,,0,0,0,0,,,,,,,,,,,,,,,,,0,141.51450735982507,None,None,1,141.51450735982507,None,142.96489259880036,None,142.96489259880036,None,f,1,1.2442901129834354,142.96489259880036,None,None,142.96489259880036,None,,,1,2,2020_Dec_28_2050,global_local,2020.2.4,None,
1,4,smallHincon,Stimuli/SofH2.jpg,f,right,,,,,,,,,0,1,1,5,,,,,,,,,,,,,,,,,1,144.2312551829964,None,space,1,144.2312551829964,None,145.73130491096526,None,145.73130491096526,None,f,1,1.9414838128723204,145.73130491096526,None,None,145.73130491096526,None,1.27383822388947,,1,2,2020_Dec_28_2050,global_local,2020.2.4,None,
1,7,smallSincon,Stimuli/HofS2.jpg,j,left,,,,,,,,,0,2,2,3,,,,,,,,,,,,,,,,,0,147.6980616976507,None,None,1,147.6980616976507,None,149.08136707358062,None,149.08136707358062,None,j,1,0.9632942322641611,149.08136707358062,None,None,149.08136707358062,None,,,1,2,2020_Dec_28_2050,global_local,2020.2.4,None,
1,6,smallScongr,Stimuli/SofS2.jpg,j,right,,,,,,,,,0,3,3,6,,,,,,,,,,,,,,,,,1,150.06478987867013,None,space,1,150.06478987867013,None,151.79829953378066,None,151.79829953378066,None,j,1,0.6731940070167184,151.79829953378066,None,None,151.79829953378066,None,0.5245243930257857,,1,2,2020_Dec_28_2050,global_local,2020.2.4,None,
1,8,smallSincon,Stimuli/HofS2.jpg,j,right,,,,,,,,,0,4,4,7,,,,,,,,,,,,,,,,,0,152.4980760528706,None,None,1,152.4980760528706,None,154.04831065097824,None,154.04831065097824,None,j,1,0.8494233479723334,154.04831065097824,None,None,154.04831065097824,None,,,1,2,2020_Dec_28_2050,global_local,2020.2.4,None,
1,7,smallSincon,Stimuli/HofS2.jpg,j,left,,,,,,,,,0,5,5,3,,,,,,,,,,,,,,,,,0,154.91512414161116,None,None,1,154.91512414161116,None,156.46470730379224,None,156.46470730379224,None,j,1,0.6831896468065679,156.46470730379224,None,None,156.46470730379224,None,,,1,2,2020_Dec_28_2050,global_local,2020.2.4,None,
1,3,smallHincon,Stimuli/SofH2.jpg,f,left,,,,,,,,,0,6,6,1,,,,,,,,,,,,,,,,,0,157.1646546749398,None,None,1,157.1646546749398,None,158.64803541172296,None,158.64803541172296,None,f,1,1.4102828069590032,158.64803541172296,None,None,158.64803541172296,None,,,1,2,2020_Dec_28_2050,global_local,2020.2.4,None,
1,2,smallHcongr,Stimuli/HofH2.jpg,f,right,,,,,,,,,0,7,7,4,,,,,,,,,,,,,,,,,1,160.08153392700478,None,space,1,160.08153392700478,None,161.78165603382513,None,161.78165603382513,None,j,0,1.1022910759784281,161.78165603382513,None,None,161.78165603382513,None,0.750151255633682,,1,2,2020_Dec_28_2050,global_local,2020.2.4,None,
1,1,smallHcongr,Stimuli/HofH2.jpg,f,left,,,,,,,,,1,0,8,0,,,,,,,,,,,,,,,,,1,162.91504366975278,None,space,1,162.91504366975278,None,164.18162422487512,None,164.18162422487512,None,f,1,1.0051146317273378,164.18162422487512,None,None,164.18162422487512,None,0.7241819631308317,,1,2,2020_Dec_28_2050,global_local,2020.2.4,None,
1,4,smallHincon,Stimuli/SofH2.jpg,f,right,,,,,,,,,1,1,9,5,,,,,,,,,,,,,,,,,0,165.2149966317229,None,None,1,165.2149966317229,None,166.78158165700734,None,166.78158165700734,None,f,1,0.7338631837628782,166.78158165700734,None,None,166.78158165700734,None,,,1,2,2020_Dec_28_2050,global_local,2020.2.4,None,
1,3,smallHincon,Stimuli/SofH2.jpg,f,left,,,,,,,,,1,2,10,1,,,,,,,,,,,,,,,,,0,167.54836596688256,None,None,1,167.54836596688256,None,169.29835715983063,None,169.29835715983063,None,f,1,0.6644715676084161,169.29835715983063,None,None,169.29835715983063,None,,,1,2,2020_Dec_28_2050,global_local,2020.2.4,None,
1,6,smallScongr,Stimuli/SofS2.jpg,j,right,,,,,,,,,1,3,11,6,,,,,,,,,,,,,,,,,0,169.9816416730173,None,None,1,169.9816416730173,None,171.29845817293972,None,171.29845817293972,None,j,1,0.575658529996872,171.29845817293972,None,None,171.29845817293972,None,,,1,2,2020_Dec_28_2050,global_local,2020.2.4,None,
1,1,smallHcongr,Stimuli/HofH2.jpg,f,left,,,,,,,,,1,4,12,0,,,,,,,,,,,,,,,,,1,171.89865141361952,None,space,1,171.89865141361952,None,173.59846882568672,None,173.59846882568672,None,f,1,0.5998355709016323,173.59846882568672,None,None,173.59846882568672,None,0.509328427258879,,1,2,2020_Dec_28_2050,global_local,2020.2.4,None,
1,5,smallScongr,Stimuli/SofS2.jpg,j,left,,,,,,,,,1,5,13,2,,,,,,,,,,,,,,,,,0,174.21499447198585,None,None,1,174.21499447198585,None,175.5648446045816,None,175.5648446045816,None,j,1,0.6539055197499692,175.5648446045816,None,None,175.5648446045816,None,,,1,2,2020_Dec_28_2050,global_local,2020.2.4,None,
1,2,smallHcongr,Stimuli/HofH2.jpg,f,right,,,,,,,,,1,6,14,4,,,,,,,,,,,,,,,,,0,176.24827374657616,None,None,1,176.24827374657616,None,177.69829629175365,None,177.69829629175365,None,f,1,0.6414345670491457,177.69829629175365,None,None,177.69829629175365,None,,,1,2,2020_Dec_28_2050,global_local,2020.2.4,None,
1,5,smallScongr,Stimuli/SofS2.jpg,j,left,,,,,,,,,1,7,15,2,,,,,,,,,,,,,,,,,0,178.36472177598625,None,None,1,178.36472177598625,None,179.8483620909974,None,179.8483620909974,None,j,1,0.6021946868859231,179.8483620909974,None,None,179.8483620909974,None,,,1,2,2020_Dec_28_2050,global_local,2020.2.4,None,
1,4,smallHincon,Stimuli/SofH2.jpg,f,right,,,,,,,,,2,0,16,5,,,,,,,,,,,,,,,,,0,180.48153351759538,None,None,1,180.48153351759538,None,181.76532685291022,None,181.76532685291022,None,f,1,1.2157426681369543,181.76532685291022,None,None,181.76532685291022,None,,,1,2,2020_Dec_28_2050,global_local,2020.2.4,None,
1,6,smallScongr,Stimuli/SofS2.jpg,j,right,,,,,,,,,2,1,17,6,,,,,,,,,,,,,,,,,0,182.99854022776708,None,None,1,182.99854022776708,None,184.56525433901697,None,184.56525433901697,None,j,1,0.6367273507639766,184.56525433901697,None,None,184.56525433901697,None,,,1,2,2020_Dec_28_2050,global_local,2020.2.4,None,
1,6,smallScongr,Stimuli/SofS2.jpg,j,right,,,,,,,,,2,2,18,6,,,,,,,,,,,,,,,,,1,185.23189337877557,None,space,1,185.23189337877557,None,186.64841494662687,None,186.64841494662687,None,j,1,0.7474477221257985,186.64841494662687,None,None,186.64841494662687,None,0.7522453721612692,,1,2,2020_Dec_28_2050,global_local,2020.2.4,None,
1,8,smallSincon,Stimuli/HofS2.jpg,j,right,,,,,,,,,2,3,19,7,,,,,,,,,,,,,,,,,0,187.41493832180277,None,None,1,187.41493832180277,None,188.71513378992677,None,188.71513378992677,None,j,1,0.9830010486766696,188.71513378992677,None,None,188.71513378992677,None,,,1,2,2020_Dec_28_2050,global_local,2020.2.4,None,
1,3,smallHincon,Stimuli/SofH2.jpg,f,left,,,,,,,,,2,4,20,1,,,,,,,,,,,,,,,,,0,189.7150857229717,None,None,1,189.7150857229717,None,191.1485230308026,None,191.1485230308026,None,f,1,0.6687106639146805,191.1485230308026,None,None,191.1485230308026,None,,,1,2,2020_Dec_28_2050,global_local,2020.2.4,None,
1,2,smallHcongr,Stimuli/HofH2.jpg,f,right,,,,,,,,,2,5,21,4,,,,,,,,,,,,,,,,,0,191.83210556395352,None,None,1,191.83210556395352,None,193.21529318066314,None,193.21529318066314,None,f,1,0.5479087149724364,193.21529318066314,None,None,193.21529318066314,None,,,1,2,2020_Dec_28_2050,global_local,2020.2.4,None,
1,8,smallSincon,Stimuli/HofS2.jpg,j,right,,,,,,,,,2,6,22,7,,,,,,,,,,,,,,,,,0,193.78208739869297,None,None,1,193.78208739869297,None,195.3321151677519,None,195.3321151677519,None,j,1,0.673301235307008,195.3321151677519,None,None,195.3321151677519,None,,,1,2,2020_Dec_28_2050,global_local,2020.2.4,None,
1,5,smallScongr,Stimuli/SofS2.jpg,j,left,,,,,,,,,2,7,23,2,,,,,,,,,,,,,,,,,1,196.03173468261957,None,space,1,196.03173468261957,None,197.58187124179676,None,197.58187124179676,None,f,0,0.964589181356132,197.58187124179676,None,None,197.58187124179676,None,0.5523473829962313,,1,2,2020_Dec_28_2050,global_local,2020.2.4,None,
1,5,smallScongr,Stimuli/SofS2.jpg,j,left,,,,,,,,,3,0,24,2,,,,,,,,,,,,,,,,,0,198.56489796796814,None,None,1,198.56489796796814,None,199.9650860480033,None,199.9650860480033,None,j,1,0.7847769479267299,199.9650860480033,None,None,199.9650860480033,None,,,1,2,2020_Dec_28_2050,global_local,2020.2.4,None,
1,4,smallHincon,Stimuli/SofH2.jpg,f,right,,,,,,,,,3,1,25,5,,,,,,,,,,,,,,,,,0,200.76511752977967,None,None,1,200.76511752977967,None,202.41516695870087,None,202.41516695870087,None,j,0,0.8358517503365874,202.41516695870087,None,None,202.41516695870087,None,,,1,2,2020_Dec_28_2050,global_local,2020.2.4,None,
1,4,smallHincon,Stimuli/SofH2.jpg,f,right,,,,,,,,,3,2,26,5,,,,,,,,,,,,,,,,,1,203.2819617507048,None,space,1,203.2819617507048,None,204.76461818488315,None,204.76461818488315,None,f,1,1.0868191989138722,204.76461818488315,None,None,204.76461818488315,None,0.6855754777789116,,1,2,2020_Dec_28_2050,global_local,2020.2.4,None,
1,1,smallHcongr,Stimuli/HofH2.jpg,f,left,,,,,,,,,3,3,27,0,,,,,,,,,,,,,,,,,0,205.8819180787541,None,None,1,205.8819180787541,None,207.28191877994686,None,207.28191877994686,None,f,1,0.9333406779915094,207.28191877994686,None,None,207.28191877994686,None,,,1,2,2020_Dec_28_2050,global_local,2020.2.4,None,
1,3,smallHincon,Stimuli/SofH2.jpg,f,left,,,,,,,,,3,4,28,1,,,,,,,,,,,,,,,,,0,208.24863639473915,None,None,1,208.24863639473915,None,209.7486054119654,None,209.7486054119654,None,f,1,0.6392180267721415,209.7486054119654,None,None,209.7486054119654,None,,,1,2,2020_Dec_28_2050,global_local,2020.2.4,None,
1,4,smallHincon,Stimuli/SofH2.jpg,f,right,,,,,,,,,3,5,29,5,,,,,,,,,,,,,,,,,0,210.4152018558234,None,None,1,210.4152018558234,None,211.69892039569095,None,211.69892039569095,None,f,1,0.5310142021626234,211.69892039569095,None,None,211.69892039569095,None,,,1,2,2020_Dec_28_2050,global_local,2020.2.4,None,
1,8,smallSincon,Stimuli/HofS2.jpg,j,right,,,,,,,,,3,6,30,7,,,,,,,,,,,,,,,,,0,212.2488976707682,None,None,1,212.2488976707682,None,213.56546186795458,None,213.56546186795458,None,j,1,0.6030483888462186,213.56546186795458,None,None,213.56546186795458,None,,,1,2,2020_Dec_28_2050,global_local,2020.2.4,None,
1,1,smallHcongr,Stimuli/HofH2.jpg,f,left,,,,,,,,,3,7,31,0,,,,,,,,,,,,,,,,,0,214.19855645578355,None,None,1,214.19855645578355,None,215.76510308589786,None,215.76510308589786,None,f,1,0.8981135007925332,215.76510308589786,None,None,215.76510308589786,None,,,1,2,2020_Dec_28_2050,global_local,2020.2.4,None,
1,5,smallScongr,Stimuli/SofS2.jpg,j,left,,,,,,,,,4,0,32,2,,,,,,,,,,,,,,,,,0,216.6821453985758,None,None,1,216.6821453985758,None,218.1818840308115,None,218.1818840308115,None,j,1,0.8731438592076302,218.1818840308115,None,None,218.1818840308115,None,,,1,2,2020_Dec_28_2050,global_local,2020.2.4,None,
1,6,smallScongr,Stimuli/SofS2.jpg,j,right,,,,,,,,,4,1,33,6,,,,,,,,,,,,,,,,,0,219.08202379662544,None,None,1,219.08202379662544,None,220.5819843118079,None,220.5819843118079,None,f,0,1.393021842930466,220.5819843118079,None,None,220.5819843118079,None,,,1,2,2020_Dec_28_2050,global_local,2020.2.4,None,
1,1,smallHcongr,Stimuli/HofH2.jpg,f,left,,,,,,,,,4,2,34,0,,,,,,,,,,,,,,,,,0,221.99862727196887,None,None,1,221.99862727196887,None,223.53221355564892,None,223.53221355564892,None,f,1,0.9959355653263628,223.53221355564892,None,None,223.53221355564892,None,,,1,2,2020_Dec_28_2050,global_local,2020.2.4,None,
1,8,smallSincon,Stimuli/HofS2.jpg,j,right,,,,,,,,,4,3,35,7,,,,,,,,,,,,,,,,,1,224.54893667902797,None,space,1,224.54893667902797,None,225.93202811898664,None,225.93202811898664,None,j,1,0.8101256098598242,225.93202811898664,None,None,225.93202811898664,None,0.6272248001769185,,1,2,2020_Dec_28_2050,global_local,2020.2.4,None,
1,2,smallHcongr,Stimuli/HofH2.jpg,f,right,,,,,,,,,4,4,36,4,,,,,,,,,,,,,,,,,0,226.76540392870083,None,None,1,226.76540392870083,None,228.34848723001778,None,228.34848723001778,None,f,1,1.3131483858451247,228.34848723001778,None,None,228.34848723001778,None,,,1,2,2020_Dec_28_2050,global_local,2020.2.4,None,
1,3,smallHincon,Stimuli/SofH2.jpg,f,left,,,,,,,,,4,5,37,1,,,,,,,,,,,,,,,,,1,229.68209042586386,None,space,1,229.68209042586386,None,231.16556573659182,None,231.16556573659182,None,f,1,0.6979775228537619,231.16556573659182,None,None,231.16556573659182,None,0.4623175887390971,,1,2,2020_Dec_28_2050,global_local,2020.2.4,None,
1,2,smallHcongr,Stimuli/HofH2.jpg,f,right,,,,,,,,,4,6,38,4,,,,,,,,,,,,,,,,,0,231.88184993667528,None,None,1,231.88184993667528,None,233.16533975070342,None,233.16533975070342,None,f,1,1.6274768873117864,233.16533975070342,None,None,233.16533975070342,None,,,1,2,2020_Dec_28_2050,global_local,2020.2.4,None,
1,8,smallSincon,Stimuli/HofS2.jpg,j,right,,,,,,,,,4,7,39,7,,,,,,,,,,,,,,,,,1,234.81580073898658,None,space,1,234.81580073898658,None,236.39877392584458,None,236.39877392584458,None,j,1,1.2106729671359062,236.39877392584458,None,None,236.39877392584458,None,0.7006469699554145,,1,2,2020_Dec_28_2050,global_local,2020.2.4,None,
1,7,smallSincon,Stimuli/HofS2.jpg,j,left,,,,,,,,,5,0,40,3,,,,,,,,,,,,,,,,,0,237.63215354271233,None,None,1,237.63215354271233,None,239.3154754769057,None,239.3154754769057,None,j,1,0.7200844520702958,239.3154754769057,None,None,239.3154754769057,None,,,1,2,2020_Dec_28_2050,global_local,2020.2.4,None,
1,2,smallHcongr,Stimuli/HofH2.jpg,f,right,,,,,,,,,5,1,41,4,,,,,,,,,,,,,,,,,0,240.06560839293525,None,None,1,240.06560839293525,None,241.68235055496916,None,241.68235055496916,None,f,1,0.600770128890872,241.68235055496916,None,None,241.68235055496916,None,,,1,2,2020_Dec_28_2050,global_local,2020.2.4,None,
1,6,smallScongr,Stimuli/SofS2.jpg,j,right,,,,,,,,,5,2,42,6,,,,,,,,,,,,,,,,,0,242.3155818209052,None,None,1,242.3155818209052,None,243.96551113994792,None,243.96551113994792,None,j,1,0.6439325548708439,243.96551113994792,None,None,243.96551113994792,None,,,1,2,2020_Dec_28_2050,global_local,2020.2.4,None,
1,7,smallSincon,Stimuli/HofS2.jpg,j,left,,,,,,,,,5,3,43,3,,,,,,,,,,,,,,,,,1,244.6323820487596,None,space,1,244.6323820487596,None,246.3155611618422,None,246.3155611618422,None,j,1,0.7422013869509101,246.3155611618422,None,None,246.3155611618422,None,0.5310088349506259,,1,2,2020_Dec_28_2050,global_local,2020.2.4,None,
1,7,smallSincon,Stimuli/HofS2.jpg,j,left,,,,,,,,,5,4,44,3,,,,,,,,,,,,,,,,,0,247.08233173098415,None,None,1,247.08233173098415,None,248.64892901293933,None,248.64892901293933,None,j,1,0.5728517849929631,248.64892901293933,None,None,248.64892901293933,None,,,1,2,2020_Dec_28_2050,global_local,2020.2.4,None,
1,3,smallHincon,Stimuli/SofH2.jpg,f,left,,,,,,,,,5,5,45,1,,,,,,,,,,,,,,,,,0,249.24879612680525,None,None,1,249.24879612680525,None,250.66543534072116,None,250.66543534072116,None,f,1,0.8633511639200151,250.66543534072116,None,None,250.66543534072116,None,,,1,2,2020_Dec_28_2050,global_local,2020.2.4,None,
1,7,smallSincon,Stimuli/HofS2.jpg,j,left,,,,,,,,,5,6,46,3,,,,,,,,,,,,,,,,,0,251.54910946357995,None,None,1,251.54910946357995,None,252.83234952762723,None,252.83234952762723,None,j,1,0.5909411879256368,252.83234952762723,None,None,252.83234952762723,None,,,1,2,2020_Dec_28_2050,global_local,2020.2.4,None,
1,5,smallScongr,Stimuli/SofS2.jpg,j,left,,,,,,,,,5,7,47,2,,,,,,,,,,,,,,,,,0,253.44911553664133,None,None,1,253.44911553664133,None,254.8325234176591,None,254.8325234176591,None,j,1,0.7545280079357326,254.8325234176591,None,None,254.8325234176591,None,,,1,2,2020_Dec_28_2050,global_local,2020.2.4,None,
