runID,imgID,stimLabel,imFile,corr,side,repeats.thisRepN,repeats.thisTrialN,repeats.thisN,repeats.thisIndex,prac_trials_run1.thisRepN,prac_trials_run1.thisTrialN,prac_trials_run1.thisN,prac_trials_run1.thisIndex,trials_run1.thisRepN,trials_run1.thisTrialN,trials_run1.thisN,trials_run1.thisIndex,repeats2.thisRepN,repeats2.thisTrialN,repeats2.thisN,repeats2.thisIndex,prac_trials_run2.thisRepN,prac_trials_run2.thisTrialN,prac_trials_run2.thisN,prac_trials_run2.thisIndex,X Scale,Y Scale,text_8.started,text_8.stopped,hand_hold_resp.keys,hand_hold_resp.corr,hand_hold_resp.rt,fixpR1,prac_resp.keys,prac_resp.corr,prac_fix_resp.keys,prac_fix_resp.corr,feedback_msg.started,feedback_msg.stopped,prac_resp.rt,prac_fix_resp.rt,fixR1,text_2.started,text_2.stopped,fix_resp1_1.keys,fix_resp1_1.started,fix_resp1_1.stopped,text_6.started,text_6.stopped,trial_image.started,trial_image.stopped,trial_resp.keys,trial_resp.corr,trial_resp.rt,trial_resp.started,trial_resp.stopped,fix_resp_2.keys,fix_resp_2.started,fix_resp_2.stopped,fix_resp1_1.rt,image_4.started,image_4.stopped,fixpR2,fix_respP2_1.keys,participant,design,position,date,expName,psychopyVersion,frameRate,
,,,,,,,,,,,,,,,,,,,,,,,,,,0.05,0.05,32.39551329379901,None,j,1,1.0399557002820075,,,,,,,,,,,,,,,,,,,,,,,,,,,,,,,,,,1,2,2020_Dec_21_1611,global_local,2020.2.4,None,
1,6,smallScongr,Stimuli/SofS2.jpg,j,right,0,0,0,0,0,0,0,2,,,,,,,,,,,,,,,,,,,,0,None,0,None,1,54.49846173170954,None,,,,,,,,,,,,,,,,,,,,,,,,,,,1,2,2020_Dec_21_1611,global_local,2020.2.4,None,
1,8,smallSincon,Stimuli/HofS2.jpg,j,right,0,0,0,0,0,1,1,5,,,,,,,,,,,,,,,,,,,,1,j,1,None,0,61.895534752868116,None,1.84727373579517,,,,,,,,,,,,,,,,,,,,,,,,,,1,2,2020_Dec_21_1611,global_local,2020.2.4,None,
1,2,smallHcongr,Stimuli/HofH2.jpg,f,right,0,0,0,0,0,2,2,4,,,,,,,,,,,,,,,,,,,,0,f,1,None,1,69.19557385472581,None,1.779560076072812,,,,,,,,,,,,,,,,,,,,,,,,,,1,2,2020_Dec_21_1611,global_local,2020.2.4,None,
1,5,smallScongr,Stimuli/SofS2.jpg,j,left,0,0,0,0,0,3,3,0,,,,,,,,,,,,,,,,,,,,0,None,0,None,1,76.62852718308568,None,,,,,,,,,,,,,,,,,,,,,,,,,,,1,2,2020_Dec_21_1611,global_local,2020.2.4,None,
1,4,smallHincon,Stimuli/SofH2.jpg,f,right,0,0,0,0,0,4,4,3,,,,,,,,,,,,,,,,,,,,1,None,0,None,0,84.09568435372785,None,,,,,,,,,,,,,,,,,,,,,,,,,,,1,2,2020_Dec_21_1611,global_local,2020.2.4,None,
1,7,smallSincon,Stimuli/HofS2.jpg,j,left,0,0,0,0,0,5,5,1,,,,,,,,,,,,,,,,,,,,0,None,0,None,1,91.67930998280644,None,,,,,,,,,,,,,,,,,,,,,,,,,,,1,2,2020_Dec_21_1611,global_local,2020.2.4,None,
1,5,smallScongr,Stimuli/SofS2.jpg,j,left,1,0,1,0,0,0,0,1,,,,,,,,,,,,,,,,,,,,0,j,1,None,1,111.66202094871551,None,1.0277806692756712,,,,,,,,,,,,,,,,,,,,,,,,,,1,2,2020_Dec_21_1611,global_local,2020.2.4,None,
1,8,smallSincon,Stimuli/HofS2.jpg,j,right,1,0,1,0,0,1,1,5,,,,,,,,,,,,,,,,,,,,1,j,1,None,0,118.96216235682368,None,0.7050005411729217,,,,,,,,,,,,,,,,,,,,,,,,,,1,2,2020_Dec_21_1611,global_local,2020.2.4,None,
1,1,smallHcongr,Stimuli/HofH2.jpg,f,left,1,0,1,0,0,2,2,0,,,,,,,,,,,,,,,,,,,,0,f,1,None,1,126.4627255499363,None,0.6725095417350531,,,,,,,,,,,,,,,,,,,,,,,,,,1,2,2020_Dec_21_1611,global_local,2020.2.4,None,
1,3,smallHincon,Stimuli/SofH2.jpg,f,left,1,0,1,0,0,3,3,2,,,,,,,,,,,,,,,,,,,,0,f,1,None,1,134.09620585571975,None,1.0139676588587463,,,,,,,,,,,,,,,,,,,,,,,,,,1,2,2020_Dec_21_1611,global_local,2020.2.4,None,
1,7,smallSincon,Stimuli/HofS2.jpg,j,left,1,0,1,0,0,4,4,3,,,,,,,,,,,,,,,,,,,,1,j,1,None,0,141.79567157384008,None,0.673055307008326,,,,,,,,,,,,,,,,,,,,,,,,,,1,2,2020_Dec_21_1611,global_local,2020.2.4,None,
1,6,smallScongr,Stimuli/SofS2.jpg,j,right,1,0,1,0,0,5,5,4,,,,,,,,,,,,,,,,,,,,0,j,1,None,1,149.06290094694123,None,0.83349575009197,,,,,,,,,,,,,,,,,,,,,,,,,,1,2,2020_Dec_21_1611,global_local,2020.2.4,None,
1,7,smallSincon,Stimuli/HofS2.jpg,j,left,2,0,2,0,0,0,0,2,,,,,,,,,,,,,,,,,,,,0,j,1,None,1,162.51236647972837,None,1.5223228917457163,,,,,,,,,,,,,,,,,,,,,,,,,,1,2,2020_Dec_21_1611,global_local,2020.2.4,None,
1,6,smallScongr,Stimuli/SofS2.jpg,j,right,2,0,2,0,0,1,1,1,,,,,,,,,,,,,,,,,,,,1,j,1,None,0,170.07959303678945,None,1.7574055921286345,,,,,,,,,,,,,,,,,,,,,,,,,,1,2,2020_Dec_21_1611,global_local,2020.2.4,None,
1,4,smallHincon,Stimuli/SofH2.jpg,f,right,2,0,2,0,0,2,2,0,,,,,,,,,,,,,,,,,,,,0,f,1,None,1,177.37904946878552,None,1.0125809032469988,,,,,,,,,,,,,,,,,,,,,,,,,,1,2,2020_Dec_21_1611,global_local,2020.2.4,None,
1,8,smallSincon,Stimuli/HofS2.jpg,j,right,2,0,2,0,0,3,3,4,,,,,,,,,,,,,,,,,,,,0,j,1,None,1,184.6633122130297,None,1.4969817148521543,,,,,,,,,,,,,,,,,,,,,,,,,,1,2,2020_Dec_21_1611,global_local,2020.2.4,None,
1,2,smallHcongr,Stimuli/HofH2.jpg,f,right,2,0,2,0,0,4,4,3,,,,,,,,,,,,,,,,,,,,1,f,1,space,1,192.2299851826392,None,1.0360244340263307,0.6145688118413091,,,,,,,,,,,,,,,,,,,,,,,,,1,2,2020_Dec_21_1611,global_local,2020.2.4,None,
1,5,smallScongr,Stimuli/SofS2.jpg,j,left,2,0,2,0,0,5,5,5,,,,,,,,,,,,,,,,,,,,0,j,1,None,1,199.89673883700743,None,0.906247996725142,,,,,,,,,,,,,,,,,,,,,,,,,,1,2,2020_Dec_21_1611,global_local,2020.2.4,None,
1,4,smallHincon,Stimuli/SofH2.jpg,f,right,,,,,,,,,0,0,0,5,,,,,,,,,,,,,,,,,,,,,,,,,0,211.84670142875984,None,None,211.84670142875984,None,213.44690189464018,None,213.44690189464018,None,f,1,0.9898823178373277,213.44690189464018,None,None,213.44690189464018,None,,,,,,,1,2,2020_Dec_21_1611,global_local,2020.2.4,None,
1,4,smallHincon,Stimuli/SofH2.jpg,f,right,,,,,,,,,0,1,1,5,,,,,,,,,,,,,,,,,,,,,,,,,0,214.46327825868502,None,None,214.46327825868502,None,216.163633458782,None,216.163633458782,None,f,1,0.6338050030171871,216.163633458782,None,None,216.163633458782,None,,,,,,,1,2,2020_Dec_21_1611,global_local,2020.2.4,None,
1,1,smallHcongr,Stimuli/HofH2.jpg,f,left,,,,,,,,,0,2,2,0,,,,,,,,,,,,,,,,,,,,,,,,,0,216.8298874637112,None,None,216.8298874637112,None,218.34693977609277,None,218.34693977609277,None,j,0,0.4591785669326782,218.34693977609277,None,None,218.34693977609277,None,,,,,,,1,2,2020_Dec_21_1611,global_local,2020.2.4,None,
1,4,smallHincon,Stimuli/SofH2.jpg,f,right,,,,,,,,,0,3,3,5,,,,,,,,,,,,,,,,,,,,,,,,,0,218.83037478709593,None,None,218.83037478709593,None,220.18008333677426,None,220.18008333677426,None,f,1,0.7938538077287376,220.18008333677426,None,None,220.18008333677426,None,,,,,,,1,2,2020_Dec_21_1611,global_local,2020.2.4,None,
1,5,smallScongr,Stimuli/SofS2.jpg,j,left,,,,,,,,,0,4,4,2,,,,,,,,,,,,,,,,,,,,,,,,,1,220.99699332891032,None,space,220.99699332891032,None,222.43021360505372,None,222.43021360505372,None,j,1,0.6710863872431219,222.43021360505372,None,None,222.43021360505372,None,0.7357123591937125,,,,,,1,2,2020_Dec_21_1611,global_local,2020.2.4,None,
1,2,smallHcongr,Stimuli/HofH2.jpg,f,right,,,,,,,,,0,5,5,4,,,,,,,,,,,,,,,,,,,,,,,,,0,223.13026655092835,None,None,223.13026655092835,None,224.88034816272557,None,224.88034816272557,None,f,1,1.0215470842085779,224.88034816272557,None,None,224.88034816272557,None,,,,,,,1,2,2020_Dec_21_1611,global_local,2020.2.4,None,
1,4,smallHincon,Stimuli/SofH2.jpg,f,right,,,,,,,,,0,6,6,5,,,,,,,,,,,,,,,,,,,,,,,,,0,225.93029770208523,None,None,225.93029770208523,None,227.31370229599997,None,227.31370229599997,None,f,1,0.5492691290564835,227.31370229599997,None,None,227.31370229599997,None,,,,,,,1,2,2020_Dec_21_1611,global_local,2020.2.4,None,
1,2,smallHcongr,Stimuli/HofH2.jpg,f,right,,,,,,,,,0,7,7,4,,,,,,,,,,,,,,,,,,,,,,,,,1,227.8803531709127,None,space,227.8803531709127,None,229.2301125600934,None,229.2301125600934,None,j,0,1.2524636597372591,229.2301125600934,None,None,229.2301125600934,None,0.49175578402355313,,,,,,1,2,2020_Dec_21_1611,global_local,2020.2.4,None,
1,2,smallHcongr,Stimuli/HofH2.jpg,f,right,,,,,,,,,1,0,8,4,,,,,,,,,,,,,,,,,,,,,,,,,1,230.51380951981992,None,space,230.51380951981992,None,231.9972009989433,None,231.9972009989433,None,j,0,0.6607763981446624,231.9972009989433,None,None,231.9972009989433,None,0.6535944389179349,,,,,,1,2,2020_Dec_21_1611,global_local,2020.2.4,None,
1,1,smallHcongr,Stimuli/HofH2.jpg,f,left,,,,,,,,,1,1,9,0,,,,,,,,,,,,,,,,,,,,,,,,,0,232.6804436617531,None,None,232.6804436617531,None,234.0971469990909,None,234.0971469990909,None,j,0,0.8037327639758587,234.0971469990909,None,None,234.0971469990909,None,,,,,,,1,2,2020_Dec_21_1611,global_local,2020.2.4,None,
1,2,smallHcongr,Stimuli/HofH2.jpg,f,right,,,,,,,,,1,2,10,4,,,,,,,,,,,,,,,,,,,,,,,,,0,234.9303906839341,None,None,234.9303906839341,None,236.397162607871,None,236.397162607871,None,f,1,0.5301146749407053,236.397162607871,None,None,236.397162607871,None,,,,,,,1,2,2020_Dec_21_1611,global_local,2020.2.4,None,
1,7,smallSincon,Stimuli/HofS2.jpg,j,left,,,,,,,,,1,3,11,3,,,,,,,,,,,,,,,,,,,,,,,,,0,236.9470563926734,None,None,236.9470563926734,None,238.68049632571638,None,238.68049632571638,None,f,0,1.2864517401903868,238.68049632571638,None,None,238.68049632571638,None,,,,,,,1,2,2020_Dec_21_1611,global_local,2020.2.4,None,
1,5,smallScongr,Stimuli/SofS2.jpg,j,left,,,,,,,,,1,4,12,2,,,,,,,,,,,,,,,,,,,,,,,,,1,239.9971593748778,None,space,239.9971593748778,None,241.41376719577238,None,241.41376719577238,None,j,1,1.0376001321710646,241.41376719577238,None,None,241.41376719577238,None,0.528464499861002,,,,,,1,2,2020_Dec_21_1611,global_local,2020.2.4,None,
1,8,smallSincon,Stimuli/HofS2.jpg,j,right,,,,,,,,,1,5,13,7,,,,,,,,,,,,,,,,,,,,,,,,,0,242.48047663085163,None,None,242.48047663085163,None,244.09716565394774,None,244.09716565394774,None,j,1,1.08114012517035,244.09716565394774,None,None,244.09716565394774,None,,,,,,,1,2,2020_Dec_21_1611,global_local,2020.2.4,None,
1,6,smallScongr,Stimuli/SofS2.jpg,j,right,,,,,,,,,1,6,14,6,,,,,,,,,,,,,,,,,,,,,,,,,1,245.1971903629601,None,space,245.1971903629601,None,246.5803418457508,None,246.5803418457508,None,f,0,1.590909558814019,246.5803418457508,None,None,246.5803418457508,None,0.5448545566760004,,,,,,1,2,2020_Dec_21_1611,global_local,2020.2.4,None,
1,3,smallHincon,Stimuli/SofH2.jpg,f,left,,,,,,,,,1,7,15,1,,,,,,,,,,,,,,,,,,,,,,,,,1,248.19715591706336,None,space,248.19715591706336,None,249.4967351909727,None,249.4967351909727,None,f,1,1.1954318508505821,249.4967351909727,None,None,249.4967351909727,None,0.7241788660176098,,,,,,1,2,2020_Dec_21_1611,global_local,2020.2.4,None,
1,1,smallHcongr,Stimuli/HofH2.jpg,f,left,,,,,,,,,2,0,16,0,,,,,,,,,,,,,,,,,,,,,,,,,0,250.71388318901882,None,None,250.71388318901882,None,252.0138991777785,None,252.0138991777785,None,f,1,1.0106217912398279,252.0138991777785,None,None,252.0138991777785,None,,,,,,,1,2,2020_Dec_21_1611,global_local,2020.2.4,None,
1,5,smallScongr,Stimuli/SofS2.jpg,j,left,,,,,,,,,2,1,17,2,,,,,,,,,,,,,,,,,,,,,,,,,0,253.04712067404762,None,None,253.04712067404762,None,254.4139524800703,None,254.4139524800703,None,j,1,0.8718687281943858,254.4139524800703,None,None,254.4139524800703,None,,,,,,,1,2,2020_Dec_21_1611,global_local,2020.2.4,None,
1,3,smallHincon,Stimuli/SofH2.jpg,f,left,,,,,,,,,2,2,18,1,,,,,,,,,,,,,,,,,,,,,,,,,0,255.31356589496136,None,None,255.31356589496136,None,256.5973390438594,None,256.5973390438594,None,f,1,0.9154561180621386,256.5973390438594,None,None,256.5973390438594,None,,,,,,,1,2,2020_Dec_21_1611,global_local,2020.2.4,None,
1,5,smallScongr,Stimuli/SofS2.jpg,j,left,,,,,,,,,2,3,19,2,,,,,,,,,,,,,,,,,,,,,,,,,1,257.5305892038159,None,space,257.5305892038159,None,259.24730156408623,None,259.24730156408623,None,j,1,0.7893618540838361,259.24730156408623,None,None,259.24730156408623,None,0.5178213999606669,,,,,,1,2,2020_Dec_21_1611,global_local,2020.2.4,None,
1,3,smallHincon,Stimuli/SofH2.jpg,f,left,,,,,,,,,2,4,20,1,,,,,,,,,,,,,,,,,,,,,,,,,0,260.06398326484486,None,None,260.06398326484486,None,261.3306159260683,None,261.3306159260683,None,j,0,0.43089818209409714,261.3306159260683,None,None,261.3306159260683,None,,,,,,,1,2,2020_Dec_21_1611,global_local,2020.2.4,None,
1,1,smallHcongr,Stimuli/HofH2.jpg,f,left,,,,,,,,,2,5,21,0,,,,,,,,,,,,,,,,,,,,,,,,,0,261.7806244348176,None,None,261.7806244348176,None,263.49731634464115,None,263.49731634464115,None,f,1,0.8097746879793704,263.49731634464115,None,None,263.49731634464115,None,,,,,,,1,2,2020_Dec_21_1611,global_local,2020.2.4,None,
1,8,smallSincon,Stimuli/HofS2.jpg,j,right,,,,,,,,,2,6,22,7,,,,,,,,,,,,,,,,,,,,,,,,,0,264.3306506178342,None,None,264.3306506178342,None,266.0137970619835,None,266.0137970619835,None,j,1,0.8064982299692929,266.0137970619835,None,None,266.0137970619835,None,,,,,,,1,2,2020_Dec_21_1611,global_local,2020.2.4,None,
1,5,smallScongr,Stimuli/SofS2.jpg,j,left,,,,,,,,,2,7,23,2,,,,,,,,,,,,,,,,,,,,,,,,,1,266.847313108854,None,space,266.847313108854,None,268.197321287822,None,268.197321287822,None,j,1,0.7651712172664702,268.197321287822,None,None,268.197321287822,None,0.5670495377853513,,,,,,1,2,2020_Dec_21_1611,global_local,2020.2.4,None,
1,3,smallHincon,Stimuli/SofH2.jpg,f,left,,,,,,,,,3,0,24,1,,,,,,,,,,,,,,,,,,,,,,,,,0,268.9806134258397,None,None,268.9806134258397,None,270.64742116397247,None,270.64742116397247,None,f,1,0.7135648210532963,270.64742116397247,None,None,270.64742116397247,None,,,,,,,1,2,2020_Dec_21_1611,global_local,2020.2.4,None,
1,7,smallSincon,Stimuli/HofS2.jpg,j,left,,,,,,,,,3,1,25,3,,,,,,,,,,,,,,,,,,,,,,,,,0,271.38050405588,None,None,271.38050405588,None,272.71405995171517,None,272.71405995171517,None,j,1,0.6841978807933629,272.71405995171517,None,None,272.71405995171517,None,,,,,,,1,2,2020_Dec_21_1611,global_local,2020.2.4,None,
1,2,smallHcongr,Stimuli/HofH2.jpg,f,right,,,,,,,,,3,2,26,4,,,,,,,,,,,,,,,,,,,,,,,,,0,273.4307750319131,None,None,273.4307750319131,None,275.13080037990585,None,275.13080037990585,None,f,1,0.6340729403309524,275.13080037990585,None,None,275.13080037990585,None,,,,,,,1,2,2020_Dec_21_1611,global_local,2020.2.4,None,
1,8,smallSincon,Stimuli/HofS2.jpg,j,right,,,,,,,,,3,3,27,7,,,,,,,,,,,,,,,,,,,,,,,,,0,275.7973509100266,None,None,275.7973509100266,None,277.48075320292264,None,277.48075320292264,None,j,1,0.7488398309797049,277.48075320292264,None,None,277.48075320292264,None,,,,,,,1,2,2020_Dec_21_1611,global_local,2020.2.4,None,
1,6,smallScongr,Stimuli/SofS2.jpg,j,right,,,,,,,,,3,4,28,6,,,,,,,,,,,,,,,,,,,,,,,,,1,278.2473843288608,None,space,278.2473843288608,None,279.6140170660801,None,279.6140170660801,None,j,1,0.8256723498925567,279.6140170660801,None,None,279.6140170660801,None,0.689704358112067,,,,,,1,2,2020_Dec_21_1611,global_local,2020.2.4,None,
1,8,smallSincon,Stimuli/HofS2.jpg,j,right,,,,,,,,,3,5,29,7,,,,,,,,,,,,,,,,,,,,,,,,,0,280.4640706628561,None,None,280.4640706628561,None,281.9973722738214,None,281.9973722738214,None,j,1,0.7272816859185696,281.9973722738214,None,None,281.9973722738214,None,,,,,,,1,2,2020_Dec_21_1611,global_local,2020.2.4,None,
1,6,smallScongr,Stimuli/SofS2.jpg,j,right,,,,,,,,,3,6,30,6,,,,,,,,,,,,,,,,,,,,,,,,,0,282.7468885728158,None,None,282.7468885728158,None,284.39733618171886,None,284.39733618171886,None,j,1,0.5644954522140324,284.39733618171886,None,None,284.39733618171886,None,,,,,,,1,2,2020_Dec_21_1611,global_local,2020.2.4,None,
1,4,smallHincon,Stimuli/SofH2.jpg,f,right,,,,,,,,,3,7,31,5,,,,,,,,,,,,,,,,,,,,,,,,,0,284.9808507380076,None,None,284.9808507380076,None,286.56425471697,None,286.56425471697,None,f,1,0.7431073421612382,286.56425471697,None,None,286.56425471697,None,,,,,,,1,2,2020_Dec_21_1611,global_local,2020.2.4,None,
1,3,smallHincon,Stimuli/SofH2.jpg,f,left,,,,,,,,,4,0,32,1,,,,,,,,,,,,,,,,,,,,,,,,,0,287.330715355929,None,None,287.330715355929,None,289.04748399788514,None,289.04748399788514,None,f,1,1.2499979296699166,289.04748399788514,None,None,289.04748399788514,None,,,,,,,1,2,2020_Dec_21_1611,global_local,2020.2.4,None,
1,6,smallScongr,Stimuli/SofS2.jpg,j,right,,,,,,,,,4,1,33,6,,,,,,,,,,,,,,,,,,,,,,,,,0,290.3140709316358,None,None,290.3140709316358,None,291.9809416308999,None,291.9809416308999,None,j,1,0.5631979140453041,291.9809416308999,None,None,291.9809416308999,None,,,,,,,1,2,2020_Dec_21_1611,global_local,2020.2.4,None,
1,7,smallSincon,Stimuli/HofS2.jpg,j,left,,,,,,,,,4,2,34,3,,,,,,,,,,,,,,,,,,,,,,,,,0,292.5641551236622,None,None,292.5641551236622,None,294.24752632994205,None,294.24752632994205,None,j,1,0.5463726939633489,294.24752632994205,None,None,294.24752632994205,None,,,,,,,1,2,2020_Dec_21_1611,global_local,2020.2.4,None,
1,7,smallSincon,Stimuli/HofS2.jpg,j,left,,,,,,,,,4,3,35,3,,,,,,,,,,,,,,,,,,,,,,,,,1,294.8141432739794,None,space,294.8141432739794,None,296.23071485804394,None,296.23071485804394,None,j,1,0.9507922101765871,296.23071485804394,None,None,296.23071485804394,None,0.7430636137723923,,,,,,1,2,2020_Dec_21_1611,global_local,2020.2.4,None,
1,6,smallScongr,Stimuli/SofS2.jpg,j,right,,,,,,,,,4,4,36,6,,,,,,,,,,,,,,,,,,,,,,,,,0,297.2142838658765,None,None,297.2142838658765,None,298.9309738278389,None,298.9309738278389,None,j,1,1.0833019223064184,298.9309738278389,None,None,298.9309738278389,None,,,,,,,1,2,2020_Dec_21_1611,global_local,2020.2.4,None,
1,6,smallScongr,Stimuli/SofS2.jpg,j,right,,,,,,,,,4,5,37,6,,,,,,,,,,,,,,,,,,,,,,,,,0,300.04754483886063,None,None,300.04754483886063,None,301.49761619465426,None,301.49761619465426,None,j,1,0.6933991950936615,301.49761619465426,None,None,301.49761619465426,None,,,,,,,1,2,2020_Dec_21_1611,global_local,2020.2.4,None,
1,8,smallSincon,Stimuli/HofS2.jpg,j,right,,,,,,,,,4,6,38,7,,,,,,,,,,,,,,,,,,,,,,,,,1,302.2143092160113,None,space,302.2143092160113,None,303.5976372458972,None,303.5976372458972,None,j,1,0.7134081688709557,303.5976372458972,None,None,303.5976372458972,None,0.7549508451484144,,,,,,1,2,2020_Dec_21_1611,global_local,2020.2.4,None,
1,2,smallHcongr,Stimuli/HofH2.jpg,f,right,,,,,,,,,4,7,39,4,,,,,,,,,,,,,,,,,,,,,,,,,1,304.33085371600464,None,space,304.33085371600464,None,305.63100379984826,None,305.63100379984826,None,f,1,0.6611674539744854,305.63100379984826,None,None,305.63100379984826,None,0.6851089620031416,,,,,,1,2,2020_Dec_21_1611,global_local,2020.2.4,None,
1,1,smallHcongr,Stimuli/HofH2.jpg,f,left,,,,,,,,,5,0,40,0,,,,,,,,,,,,,,,,,,,,,,,,,0,306.3143094708212,None,None,306.3143094708212,None,307.8976440397091,None,307.8976440397091,None,f,1,0.5665472340770066,307.8976440397091,None,None,307.8976440397091,None,,,,,,,1,2,2020_Dec_21_1611,global_local,2020.2.4,None,
1,3,smallHincon,Stimuli/SofH2.jpg,f,left,,,,,,,,,5,1,41,1,,,,,,,,,,,,,,,,,,,,,,,,,0,308.48106603790075,None,None,308.48106603790075,None,309.98086988087744,None,309.98086988087744,None,f,1,0.6942313499748707,309.98086988087744,None,None,309.98086988087744,None,,,,,,,1,2,2020_Dec_21_1611,global_local,2020.2.4,None,
1,4,smallHincon,Stimuli/SofH2.jpg,f,right,,,,,,,,,5,2,42,5,,,,,,,,,,,,,,,,,,,,,,,,,0,310.69771142397076,None,None,310.69771142397076,None,312.38102605892345,None,312.38102605892345,None,f,1,0.6570042199455202,312.38102605892345,None,None,312.38102605892345,None,,,,,,,1,2,2020_Dec_21_1611,global_local,2020.2.4,None,
1,1,smallHcongr,Stimuli/HofH2.jpg,f,left,,,,,,,,,5,3,43,0,,,,,,,,,,,,,,,,,,,,,,,,,1,313.0643270886503,None,space,313.0643270886503,None,314.56443283567205,None,314.56443283567205,None,f,1,0.7121197949163616,314.56443283567205,None,None,314.56443283567205,None,0.5025814138352871,,,,,,1,2,2020_Dec_21_1611,global_local,2020.2.4,None,
1,7,smallSincon,Stimuli/HofS2.jpg,j,left,,,,,,,,,5,4,44,3,,,,,,,,,,,,,,,,,,,,,,,,,0,315.2977384617552,None,None,315.2977384617552,None,316.78106223093346,None,316.78106223093346,None,j,1,0.5373909040354192,316.78106223093346,None,None,316.78106223093346,None,,,,,,,1,2,2020_Dec_21_1611,global_local,2020.2.4,None,
1,7,smallSincon,Stimuli/HofS2.jpg,j,left,,,,,,,,,5,5,45,3,,,,,,,,,,,,,,,,,,,,,,,,,1,317.34754856396466,None,space,317.34754856396466,None,318.7310369820334,None,318.7310369820334,None,j,1,0.8282216480001807,318.7310369820334,None,None,318.7310369820334,None,0.5061739911325276,,,,,,1,2,2020_Dec_21_1611,global_local,2020.2.4,None,
1,8,smallSincon,Stimuli/HofS2.jpg,j,right,,,,,,,,,5,6,46,7,,,,,,,,,,,,,,,,,,,,,,,,,0,319.5809829970822,None,None,319.5809829970822,None,321.0475364527665,None,321.0475364527665,None,j,1,0.6038414458744228,321.0475364527665,None,None,321.0475364527665,None,,,,,,,1,2,2020_Dec_21_1611,global_local,2020.2.4,None,
1,5,smallScongr,Stimuli/SofS2.jpg,j,left,,,,,,,,,5,7,47,2,,,,,,,,,,,,,,,,,,,,,,,,,0,321.6810459829867,None,None,321.6810459829867,None,323.3810563799925,None,323.3810563799925,None,j,1,0.9773018076084554,323.3810563799925,None,None,323.3810563799925,None,,,,,,,1,2,2020_Dec_21_1611,global_local,2020.2.4,None,
,,,,,,,,,,,,,,,,,,,,,,,,,,,,330.5476328120567,None,f,0,1.4649760159663856,,,,,,,,,,,,,,,,,,,,,,,,,,,,,324.3807801059447,None,,,,1,2,2020_Dec_21_1611,global_local,2020.2.4,None,
,,,,,,,,,,,,,,,,,,,,,,,,,,,,,,,,,,f,1,None,1,,,0.8468618947081268,,,,,,,,,,,,,,,,,,,,,,,0,None,,,,,,,,
