runID,imgID,stimLabel,imFile,corr,side,repeats.thisRepN,repeats.thisTrialN,repeats.thisN,repeats.thisIndex,prac_trials_run1.thisRepN,prac_trials_run1.thisTrialN,prac_trials_run1.thisN,prac_trials_run1.thisIndex,trials_run1.thisRepN,trials_run1.thisTrialN,trials_run1.thisN,trials_run1.thisIndex,X Scale,Y Scale,text_8.started,text_8.stopped,hand_hold_resp.keys,hand_hold_resp.corr,hand_hold_resp.rt,fixpR1,prac_resp.keys,prac_resp.corr,prac_resp.rt,prac_fix_resp.keys,prac_fix_resp.corr,feedback_msg.started,feedback_msg.stopped,prac_fix_resp.rt,fixR1,text_2.started,text_2.stopped,fix_resp1_1.keys,fix_resp1_1.started,fix_resp1_1.stopped,text_6.started,text_6.stopped,trial_image.started,trial_image.stopped,trial_resp.keys,trial_resp.corr,trial_resp.rt,trial_resp.started,trial_resp.stopped,fix_resp_2.keys,fix_resp_2.started,fix_resp_2.stopped,fix_resp1_1.rt,image_4.started,image_4.stopped,participant,design,position,date,expName,psychopyVersion,frameRate,
,,,,,,,,,,,,,,,,,,0.05,0.05,33.19797280617058,None,j,1,1.300511130131781,,,,,,,,,,,,,,,,,,,,,,,,,,,,,,,,1,2,2020_Dec_28_1027,global_local,2020.2.4,None,
1,5,smallScongr,Stimuli/SofS2.jpg,j,left,0,0,0,0,0,0,0,3,,,,,,,,,,,,0,j,1,1.104132825974375,None,1,44.69795218296349,None,,,,,,,,,,,,,,,,,,,,,,,,1,2,2020_Dec_28_1027,global_local,2020.2.4,None,
1,6,smallScongr,Stimuli/SofS2.jpg,j,right,0,0,0,0,0,1,1,4,,,,,,,,,,,,0,None,0,,None,1,51.99911149404943,None,,,,,,,,,,,,,,,,,,,,,,,,1,2,2020_Dec_28_1027,global_local,2020.2.4,None,
1,3,smallHincon,Stimuli/SofH2.jpg,f,left,0,0,0,0,0,2,2,5,,,,,,,,,,,,1,None,0,,None,0,59.599041391164064,None,,,,,,,,,,,,,,,,,,,,,,,,1,2,2020_Dec_28_1027,global_local,2020.2.4,None,
1,8,smallSincon,Stimuli/HofS2.jpg,j,right,0,0,0,0,0,3,3,1,,,,,,,,,,,,1,j,1,3.4710186100564897,None,0,67.19890659116209,None,,,,,,,,,,,,,,,,,,,,,,,,1,2,2020_Dec_28_1027,global_local,2020.2.4,None,
1,2,smallHcongr,Stimuli/HofH2.jpg,f,right,0,0,0,0,0,4,4,0,,,,,,,,,,,,0,f,1,1.1308893570676446,None,1,74.71547193732113,None,,,,,,,,,,,,,,,,,,,,,,,,1,2,2020_Dec_28_1027,global_local,2020.2.4,None,
1,4,smallHincon,Stimuli/SofH2.jpg,f,right,0,0,0,0,0,5,5,2,,,,,,,,,,,,0,f,1,1.366304982919246,None,1,82.0994522292167,None,,,,,,,,,,,,,,,,,,,,,,,,1,2,2020_Dec_28_1027,global_local,2020.2.4,None,
1,6,smallScongr,Stimuli/SofS2.jpg,j,right,1,0,1,0,0,0,0,2,,,,,,,,,,,,0,j,1,1.1280396687798202,None,1,95.4159450023435,None,,,,,,,,,,,,,,,,,,,,,,,,1,2,2020_Dec_28_1027,global_local,2020.2.4,None,
1,7,smallSincon,Stimuli/HofS2.jpg,j,left,1,0,1,0,0,1,1,4,,,,,,,,,,,,0,j,1,1.1222033337689936,None,1,102.79962792200968,None,,,,,,,,,,,,,,,,,,,,,,,,1,2,2020_Dec_28_1027,global_local,2020.2.4,None,
1,2,smallHcongr,Stimuli/HofH2.jpg,f,right,1,0,1,0,0,2,2,0,,,,,,,,,,,,1,None,0,,None,0,110.43276540422812,None,,,,,,,,,,,,,,,,,,,,,,,,1,2,2020_Dec_28_1027,global_local,2020.2.4,None,
1,1,smallHcongr,Stimuli/HofH2.jpg,f,left,1,0,1,0,0,3,3,5,,,,,,,,,,,,1,f,1,1.8904983908869326,space,1,117.79958583507687,None,-3.0699616498313844,,,,,,,,,,,,,,,,,,,,,,,1,2,2020_Dec_28_1027,global_local,2020.2.4,None,
1,4,smallHincon,Stimuli/SofH2.jpg,f,right,1,0,1,0,0,4,4,3,,,,,,,,,,,,0,f,1,1.0766570321284235,None,1,125.4994891602546,None,,,,,,,,,,,,,,,,,,,,,,,,1,2,2020_Dec_28_1027,global_local,2020.2.4,None,
1,8,smallSincon,Stimuli/HofS2.jpg,j,right,1,0,1,0,0,5,5,1,,,,,,,,,,,,0,j,1,0.6824001390486956,None,1,133.1165456371382,None,,,,,,,,,,,,,,,,,,,,,,,,1,2,2020_Dec_28_1027,global_local,2020.2.4,None,
1,3,smallHincon,Stimuli/SofH2.jpg,f,left,,,,,,,,,0,0,0,1,,,,,,,,,,,,,,,,,0,140.24959381716326,None,None,140.24959381716326,None,141.79996408196166,None,141.79996408196166,None,f,1,0.8836005446501076,141.79996408196166,None,None,141.79996408196166,None,,,,,1,2,2020_Dec_28_1027,global_local,2020.2.4,None,
1,8,smallSincon,Stimuli/HofS2.jpg,j,right,,,,,,,,,0,1,1,7,,,,,,,,,,,,,,,,,0,142.69988398998976,None,None,142.69988398998976,None,144.33309318125248,None,144.33309318125248,None,j,1,0.7172924312762916,144.33309318125248,None,None,144.33309318125248,None,,,,,1,2,2020_Dec_28_1027,global_local,2020.2.4,None,
1,4,smallHincon,Stimuli/SofH2.jpg,f,right,,,,,,,,,0,2,2,5,,,,,,,,,,,,,,,,,1,145.06608290597796,None,space,145.06608290597796,None,146.53301790403202,None,146.53301790403202,None,j,0,0.6902198176831007,146.53301790403202,None,None,146.53301790403202,None,0.744749154895544,,,,1,2,2020_Dec_28_1027,global_local,2020.2.4,None,
1,2,smallHcongr,Stimuli/HofH2.jpg,f,right,,,,,,,,,0,3,3,4,,,,,,,,,,,,,,,,,0,147.24967752117664,None,None,147.24967752117664,None,148.81626568222418,None,148.81626568222418,None,j,0,0.467629489954561,148.81626568222418,None,None,148.81626568222418,None,,,,,1,2,2020_Dec_28_1027,global_local,2020.2.4,None,
1,6,smallScongr,Stimuli/SofS2.jpg,j,right,,,,,,,,,0,4,4,6,,,,,,,,,,,,,,,,,0,149.29974792338908,None,None,149.29974792338908,None,150.69981743814424,None,150.69981743814424,None,j,1,0.39924414874985814,150.69981743814424,None,None,150.69981743814424,None,,,,,1,2,2020_Dec_28_1027,global_local,2020.2.4,None,
1,1,smallHcongr,Stimuli/HofH2.jpg,f,left,,,,,,,,,0,5,5,0,,,,,,,,,,,,,,,,,1,151.11645888211206,None,space,151.11645888211206,None,152.68300052639097,None,152.68300052639097,None,f,1,0.5957269556820393,152.68300052639097,None,None,152.68300052639097,None,0.5919190412387252,,,,1,2,2020_Dec_28_1027,global_local,2020.2.4,None,
1,2,smallHcongr,Stimuli/HofH2.jpg,f,right,,,,,,,,,0,6,6,4,,,,,,,,,,,,,,,,,0,153.30008231196553,None,None,153.30008231196553,None,154.56644875509664,None,154.56644875509664,None,j,0,0.5607623909600079,154.56644875509664,None,None,154.56644875509664,None,,,,,1,2,2020_Dec_28_1027,global_local,2020.2.4,None,
1,6,smallScongr,Stimuli/SofS2.jpg,j,right,,,,,,,,,0,7,7,6,,,,,,,,,,,,,,,,,0,155.1497902981937,None,None,155.1497902981937,None,156.43322976212949,None,156.43322976212949,None,j,1,0.43205257691442966,156.43322976212949,None,None,156.43322976212949,None,,,,,1,2,2020_Dec_28_1027,global_local,2020.2.4,None,
1,7,smallSincon,Stimuli/HofS2.jpg,j,left,,,,,,,,,1,0,8,3,,,,,,,,,,,,,,,,,1,156.88301564240828,None,space,156.88301564240828,None,158.28316465532407,None,158.28316465532407,None,f,0,0.6949944472871721,158.28316465532407,None,None,158.28316465532407,None,0.6256825011223555,,,,1,2,2020_Dec_28_1027,global_local,2020.2.4,None,
1,3,smallHincon,Stimuli/SofH2.jpg,f,left,,,,,,,,,1,1,9,1,,,,,,,,,,,,,,,,,0,158.99995181616396,None,None,158.99995181616396,None,160.63311485620216,None,160.63311485620216,None,f,1,0.744135104585439,160.63311485620216,None,None,160.63311485620216,None,,,,,1,2,2020_Dec_28_1027,global_local,2020.2.4,None,
1,2,smallHcongr,Stimuli/HofH2.jpg,f,right,,,,,,,,,1,2,10,4,,,,,,,,,,,,,,,,,0,161.39983543101698,None,None,161.39983543101698,None,163.13343454897404,None,163.13343454897404,None,f,1,0.7901643039658666,163.13343454897404,None,None,163.13343454897404,None,,,,,1,2,2020_Dec_28_1027,global_local,2020.2.4,None,
1,3,smallHincon,Stimuli/SofH2.jpg,f,left,,,,,,,,,1,3,11,1,,,,,,,,,,,,,,,,,0,163.9500716170296,None,None,163.9500716170296,None,165.59988753311336,None,165.59988753311336,None,f,1,0.6178036709316075,165.59988753311336,None,None,165.59988753311336,None,,,,,1,2,2020_Dec_28_1027,global_local,2020.2.4,None,
1,5,smallScongr,Stimuli/SofS2.jpg,j,left,,,,,,,,,1,4,12,2,,,,,,,,,,,,,,,,,0,166.2331416103989,None,None,166.2331416103989,None,167.94993885001168,None,167.94993885001168,None,j,1,0.6397789348848164,167.94993885001168,None,None,167.94993885001168,None,,,,,1,2,2020_Dec_28_1027,global_local,2020.2.4,None,
1,8,smallSincon,Stimuli/HofS2.jpg,j,right,,,,,,,,,1,5,13,7,,,,,,,,,,,,,,,,,0,168.61658230610192,None,None,168.61658230610192,None,170.13350491411984,None,170.13350491411984,None,j,1,0.5582072441466153,170.13350491411984,None,None,170.13350491411984,None,,,,,1,2,2020_Dec_28_1027,global_local,2020.2.4,None,
1,3,smallHincon,Stimuli/SofH2.jpg,f,left,,,,,,,,,1,6,14,1,,,,,,,,,,,,,,,,,0,170.71684350911528,None,None,170.71684350911528,None,172.31685705529526,None,172.31685705529526,None,j,0,0.5105226640589535,172.31685705529526,None,None,172.31685705529526,None,,,,,1,2,2020_Dec_28_1027,global_local,2020.2.4,None,
1,4,smallHincon,Stimuli/SofH2.jpg,f,right,,,,,,,,,1,7,15,5,,,,,,,,,,,,,,,,,0,172.84999598795548,None,None,172.84999598795548,None,174.3323120311834,None,174.3323120311834,None,f,1,0.5277306190691888,174.3323120311834,None,None,174.3323120311834,None,,,,,1,2,2020_Dec_28_1027,global_local,2020.2.4,None,
1,4,smallHincon,Stimuli/SofH2.jpg,f,right,,,,,,,,,2,0,16,5,,,,,,,,,,,,,,,,,0,174.8823139560409,None,None,174.8823139560409,None,176.29997209040448,None,176.29997209040448,None,f,1,0.6022932408377528,176.29997209040448,None,None,176.29997209040448,None,,,,,1,2,2020_Dec_28_1027,global_local,2020.2.4,None,
1,1,smallHcongr,Stimuli/HofH2.jpg,f,left,,,,,,,,,2,1,17,0,,,,,,,,,,,,,,,,,0,176.9332052571699,None,None,176.9332052571699,None,178.40001416299492,None,178.40001416299492,None,j,0,0.7377129453234375,178.40001416299492,None,None,178.40001416299492,None,,,,,1,2,2020_Dec_28_1027,global_local,2020.2.4,None,
1,5,smallScongr,Stimuli/SofS2.jpg,j,left,,,,,,,,,2,2,18,2,,,,,,,,,,,,,,,,,0,179.16663529537618,None,None,179.16663529537618,None,180.516827410087,None,180.516827410087,None,j,1,0.9670475833117962,180.516827410087,None,None,180.516827410087,None,,,,,1,2,2020_Dec_28_1027,global_local,2020.2.4,None,
1,6,smallScongr,Stimuli/SofS2.jpg,j,right,,,,,,,,,2,3,19,6,,,,,,,,,,,,,,,,,0,181.50015660235658,None,None,181.50015660235658,None,182.89999560127035,None,182.89999560127035,None,j,1,0.9293670658953488,182.89999560127035,None,None,182.89999560127035,None,,,,,1,2,2020_Dec_28_1027,global_local,2020.2.4,None,
1,7,smallSincon,Stimuli/HofS2.jpg,j,left,,,,,,,,,2,4,20,3,,,,,,,,,,,,,,,,,0,183.85025278897956,None,None,183.85025278897956,None,185.4499777900055,None,185.4499777900055,None,f,0,0.7172070601955056,185.4499777900055,None,None,185.4499777900055,None,,,,,1,2,2020_Dec_28_1027,global_local,2020.2.4,None,
1,1,smallHcongr,Stimuli/HofH2.jpg,f,left,,,,,,,,,2,5,21,0,,,,,,,,,,,,,,,,,1,186.20001500705257,None,space,186.20001500705257,None,187.73331929696724,None,187.73331929696724,None,f,1,0.7664511068724096,187.73331929696724,None,None,187.73331929696724,None,0.6451677628792822,,,,1,2,2020_Dec_28_1027,global_local,2020.2.4,None,
1,8,smallSincon,Stimuli/HofS2.jpg,j,right,,,,,,,,,2,6,22,7,,,,,,,,,,,,,,,,,0,188.51667269924656,None,None,188.51667269924656,None,189.83344212919474,None,189.83344212919474,None,j,1,0.6557768960483372,189.83344212919474,None,None,189.83344212919474,None,,,,,1,2,2020_Dec_28_1027,global_local,2020.2.4,None,
1,2,smallHcongr,Stimuli/HofH2.jpg,f,right,,,,,,,,,2,7,23,4,,,,,,,,,,,,,,,,,0,190.51702934829518,None,None,190.51702934829518,None,191.80030560400337,None,191.80030560400337,None,f,1,0.8172918627969921,191.80030560400337,None,None,191.80030560400337,None,,,,,1,2,2020_Dec_28_1027,global_local,2020.2.4,None,
1,7,smallSincon,Stimuli/HofS2.jpg,j,left,,,,,,,,,3,0,24,3,,,,,,,,,,,,,,,,,0,192.65009766537696,None,None,192.65009766537696,None,194.13355163717642,None,194.13355163717642,None,j,1,0.5559349753893912,194.13355163717642,None,None,194.13355163717642,None,,,,,1,2,2020_Dec_28_1027,global_local,2020.2.4,None,
1,2,smallHcongr,Stimuli/HofH2.jpg,f,right,,,,,,,,,3,1,25,4,,,,,,,,,,,,,,,,,0,194.71670680632815,None,None,194.71670680632815,None,196.20023962529376,None,196.20023962529376,None,f,1,0.8376073087565601,196.20023962529376,None,None,196.20023962529376,None,,,,,1,2,2020_Dec_28_1027,global_local,2020.2.4,None,
1,6,smallScongr,Stimuli/SofS2.jpg,j,right,,,,,,,,,3,2,26,6,,,,,,,,,,,,,,,,,1,197.06678771832958,None,space,197.06678771832958,None,198.68342088535428,None,198.68342088535428,None,j,1,0.887833409011364,198.68342088535428,None,None,198.68342088535428,None,0.5631711082533002,,,,1,2,2020_Dec_28_1027,global_local,2020.2.4,None,
1,8,smallSincon,Stimuli/HofS2.jpg,j,right,,,,,,,,,3,3,27,7,,,,,,,,,,,,,,,,,0,199.6001374903135,None,None,199.6001374903135,None,201.20015559205785,None,201.20015559205785,None,j,1,0.6183090810663998,201.20015559205785,None,None,201.20015559205785,None,,,,,1,2,2020_Dec_28_1027,global_local,2020.2.4,None,
1,4,smallHincon,Stimuli/SofH2.jpg,f,right,,,,,,,,,3,4,28,5,,,,,,,,,,,,,,,,,1,201.83358435425907,None,space,201.83358435425907,None,203.53356575313956,None,203.53356575313956,None,f,1,0.793830247130245,203.53356575313956,None,None,203.53356575313956,None,0.5801432570442557,,,,1,2,2020_Dec_28_1027,global_local,2020.2.4,None,
1,4,smallHincon,Stimuli/SofH2.jpg,f,right,,,,,,,,,3,5,29,5,,,,,,,,,,,,,,,,,0,204.35023570200428,None,None,204.35023570200428,None,206.05024526827037,None,206.05024526827037,None,f,1,0.39944388903677464,206.05024526827037,None,None,206.05024526827037,None,,,,,1,2,2020_Dec_28_1027,global_local,2020.2.4,None,
1,1,smallHcongr,Stimuli/HofH2.jpg,f,left,,,,,,,,,3,6,30,0,,,,,,,,,,,,,,,,,0,206.4669579663314,None,None,206.4669579663314,None,207.85019543441013,None,207.85019543441013,None,f,1,1.8465481791645288,207.85019543441013,None,None,207.85019543441013,None,,,,,1,2,2020_Dec_28_1027,global_local,2020.2.4,None,
1,2,smallHcongr,Stimuli/HofH2.jpg,f,right,,,,,,,,,3,7,31,4,,,,,,,,,,,,,,,,,0,209.71676967805251,None,space,209.71676967805251,None,211.25016986811534,None,211.25016986811534,None,f,1,1.1599258962087333,211.25016986811534,None,None,211.25016986811534,None,0.23517907783389091,,,,1,2,2020_Dec_28_1027,global_local,2020.2.4,None,
1,6,smallScongr,Stimuli/SofS2.jpg,j,right,,,,,,,,,4,0,32,6,,,,,,,,,,,,,,,,,0,212.43379856739193,None,None,212.43379856739193,None,214.00050256727263,None,214.00050256727263,None,j,1,0.6369185619987547,214.00050256727263,None,None,214.00050256727263,None,,,,,1,2,2020_Dec_28_1027,global_local,2020.2.4,None,
1,3,smallHincon,Stimuli/SofH2.jpg,f,left,,,,,,,,,4,1,33,1,,,,,,,,,,,,,,,,,1,214.66701670223847,None,space,214.66701670223847,None,216.1835933541879,None,216.1835933541879,None,f,1,0.6545597687363625,216.1835933541879,None,None,216.1835933541879,None,0.5621033441275358,,,,1,2,2020_Dec_28_1027,global_local,2020.2.4,None,
1,5,smallScongr,Stimuli/SofS2.jpg,j,left,,,,,,,,,4,2,34,2,,,,,,,,,,,,,,,,,0,216.86692717904225,None,None,216.86692717904225,None,218.31707121012732,None,218.31707121012732,None,j,1,0.6883671600371599,218.31707121012732,None,None,218.31707121012732,None,,,,,1,2,2020_Dec_28_1027,global_local,2020.2.4,None,
1,7,smallSincon,Stimuli/HofS2.jpg,j,left,,,,,,,,,4,3,35,3,,,,,,,,,,,,,,,,,0,219.03369099041447,None,None,219.03369099041447,None,220.50058239419013,None,220.50058239419013,None,f,0,0.6345513057895005,220.50058239419013,None,None,220.50058239419013,None,,,,,1,2,2020_Dec_28_1027,global_local,2020.2.4,None,
1,7,smallSincon,Stimuli/HofS2.jpg,j,left,,,,,,,,,4,4,36,3,,,,,,,,,,,,,,,,,0,221.16683246707544,None,None,221.16683246707544,None,222.90049897227436,None,222.90049897227436,None,j,1,0.7765226578339934,222.90049897227436,None,None,222.90049897227436,None,,,,,1,2,2020_Dec_28_1027,global_local,2020.2.4,None,
1,6,smallScongr,Stimuli/SofS2.jpg,j,right,,,,,,,,,4,5,37,6,,,,,,,,,,,,,,,,,0,223.70062388526276,None,None,223.70062388526276,None,225.4335001083091,None,225.4335001083091,None,j,1,0.4896079250611365,225.4335001083091,None,None,225.4335001083091,None,,,,,1,2,2020_Dec_28_1027,global_local,2020.2.4,None,
1,8,smallSincon,Stimuli/HofS2.jpg,j,right,,,,,,,,,4,6,38,7,,,,,,,,,,,,,,,,,1,225.95043263118714,None,space,225.95043263118714,None,227.3004656052217,None,227.3004656052217,None,j,1,0.8607113240286708,227.3004656052217,None,None,227.3004656052217,None,0.552481978200376,,,,1,2,2020_Dec_28_1027,global_local,2020.2.4,None,
1,8,smallSincon,Stimuli/HofS2.jpg,j,right,,,,,,,,,4,7,39,7,,,,,,,,,,,,,,,,,0,228.1836995673366,None,None,228.1836995673366,None,229.83375051105395,None,229.83375051105395,None,j,1,0.6262242030352354,229.83375051105395,None,None,229.83375051105395,None,,,,,1,2,2020_Dec_28_1027,global_local,2020.2.4,None,
1,1,smallHcongr,Stimuli/HofH2.jpg,f,left,,,,,,,,,5,0,40,0,,,,,,,,,,,,,,,,,0,230.48381090722978,None,None,230.48381090722978,None,231.98382953600958,None,231.98382953600958,None,f,1,0.5636927890591323,231.98382953600958,None,None,231.98382953600958,None,,,,,1,2,2020_Dec_28_1027,global_local,2020.2.4,None,
1,7,smallSincon,Stimuli/HofS2.jpg,j,left,,,,,,,,,5,1,41,3,,,,,,,,,,,,,,,,,1,232.5683966143988,None,space,232.5683966143988,None,234.2675901199691,None,234.2675901199691,None,j,1,0.7004575347527862,234.2675901199691,None,None,234.2675901199691,None,0.4802751000970602,,,,1,2,2020_Dec_28_1027,global_local,2020.2.4,None,
1,4,smallHincon,Stimuli/SofH2.jpg,f,right,,,,,,,,,5,2,42,5,,,,,,,,,,,,,,,,,0,234.9838669472374,None,None,234.9838669472374,None,236.38378829928115,None,236.38378829928115,None,j,0,0.8698037988506258,236.38378829928115,None,None,236.38378829928115,None,,,,,1,2,2020_Dec_28_1027,global_local,2020.2.4,None,
1,5,smallScongr,Stimuli/SofS2.jpg,j,left,,,,,,,,,5,3,43,2,,,,,,,,,,,,,,,,,0,237.2838839092292,None,None,237.2838839092292,None,239.03378189634532,None,239.03378189634532,None,j,1,0.6595811587758362,239.03378189634532,None,None,239.03378189634532,None,,,,,1,2,2020_Dec_28_1027,global_local,2020.2.4,None,
1,5,smallScongr,Stimuli/SofS2.jpg,j,left,,,,,,,,,5,4,44,2,,,,,,,,,,,,,,,,,0,239.717062685173,None,None,239.717062685173,None,241.2839601561427,None,241.2839601561427,None,j,1,0.6314503257162869,241.2839601561427,None,None,241.2839601561427,None,,,,,1,2,2020_Dec_28_1027,global_local,2020.2.4,None,
1,5,smallScongr,Stimuli/SofS2.jpg,j,left,,,,,,,,,5,5,45,2,,,,,,,,,,,,,,,,,0,241.93403504416347,None,None,241.93403504416347,None,243.3339882902801,None,243.3339882902801,None,j,1,0.5671385279856622,243.3339882902801,None,None,243.3339882902801,None,,,,,1,2,2020_Dec_28_1027,global_local,2020.2.4,None,
1,1,smallHcongr,Stimuli/HofH2.jpg,f,left,,,,,,,,,5,6,46,0,,,,,,,,,,,,,,,,,0,243.93401915812865,None,None,243.93401915812865,None,245.60049646627158,None,245.60049646627158,None,f,1,0.7389830509200692,245.60049646627158,None,None,245.60049646627158,None,,,,,1,2,2020_Dec_28_1027,global_local,2020.2.4,None,
1,3,smallHincon,Stimuli/SofH2.jpg,f,left,,,,,,,,,5,7,47,1,,,,,,,,,,,,,,,,,0,246.3671043892391,None,None,246.3671043892391,None,247.7504699230194,None,247.7504699230194,None,f,1,1.0347783891484141,247.7504699230194,None,None,247.7504699230194,None,,,,,1,2,2020_Dec_28_1027,global_local,2020.2.4,None,
,,,,,,,,,,,,,,,,,,,,,,,,,,,,,,,,,,,,,,,,,,,,,,,,,,,,,248.80061092413962,None,,,,,,,,
