runID,imgID,stimLabel,imFile,corr,side,repeats.thisRepN,repeats.thisTrialN,repeats.thisN,repeats.thisIndex,prac_trials_run1.thisRepN,prac_trials_run1.thisTrialN,prac_trials_run1.thisN,prac_trials_run1.thisIndex,trials_run1.thisRepN,trials_run1.thisTrialN,trials_run1.thisN,trials_run1.thisIndex,repeats2.thisRepN,repeats2.thisTrialN,repeats2.thisN,repeats2.thisIndex,X Scale,Y Scale,text_8.started,text_8.stopped,hand_hold_resp.keys,hand_hold_resp.corr,hand_hold_resp.rt,fixpR1,prac_resp.keys,prac_resp.corr,prac_resp.rt,prac_fix_resp.keys,prac_fix_resp.corr,feedback_msg.started,feedback_msg.stopped,prac_fix_resp.rt,fixR1,text_2.started,text_2.stopped,fix_resp1_1.keys,fix_resp1_1.corr,fix_resp1_1.started,fix_resp1_1.stopped,text_6.started,text_6.stopped,trial_image.started,trial_image.stopped,trial_resp.keys,trial_resp.corr,trial_resp.rt,trial_resp.started,trial_resp.stopped,fix_resp_2.keys,fix_resp_2.started,fix_resp_2.stopped,fix_resp1_1.rt,fix_resp_2.rt,participant,design,position,date,expName,psychopyVersion,frameRate,
,,,,,,,,,,,,,,,,,,,,,,0.05,0.05,29.823681784999962,None,j,1,0.653853191999815,,,,,,,,,,,,,,,,,,,,,,,,,,,,,,,,1,2,2021_Jan_13_1336,global_local,2020.2.4,None,
1,2,smallHcongr,Stimuli/HofH2.jpg,f,right,0,0,0,0,0,0,0,0,,,,,,,,,,,,,,,,0,f,1,0.795499947000053,None,1,38.09022728199989,None,,,,,,,,,,,,,,,,,,,,,,,,1,2,2021_Jan_13_1336,global_local,2020.2.4,None,
1,8,smallSincon,Stimuli/HofS2.jpg,j,right,0,0,0,0,0,1,1,2,,,,,,,,,,,,,,,,0,j,1,0.8277955969999766,None,1,45.407693249999966,None,,,,,,,,,,,,,,,,,,,,,,,,1,2,2021_Jan_13_1336,global_local,2020.2.4,None,
1,5,smallScongr,Stimuli/SofS2.jpg,j,left,0,0,0,0,0,2,2,4,,,,,,,,,,,,,,,,1,j,1,1.4804010759999073,space,1,52.741304995999826,None,1.116831671,,,,,,,,,,,,,,,,,,,,,,,1,2,2021_Jan_13_1336,global_local,2020.2.4,None,
1,4,smallHincon,Stimuli/SofH2.jpg,f,right,0,0,0,0,0,3,3,3,,,,,,,,,,,,,,,,1,f,1,1.755537332999893,space,1,60.20801342499999,None,1.9819601860001512,,,,,,,,,,,,,,,,,,,,,,,1,2,2021_Jan_13_1336,global_local,2020.2.4,None,
1,7,smallSincon,Stimuli/HofS2.jpg,j,left,0,0,0,0,0,4,4,5,,,,,,,,,,,,,,,,0,None,0,,None,1,67.69326479899996,None,,,,,,,,,,,,,,,,,,,,,,,,1,2,2021_Jan_13_1336,global_local,2020.2.4,None,
1,1,smallHcongr,Stimuli/HofH2.jpg,f,left,0,0,0,0,0,5,5,1,,,,,,,,,,,,,,,,0,f,1,1.4087758220000524,None,1,75.424584417,None,,,,,,,,,,,,,,,,,,,,,,,,1,2,2021_Jan_13_1336,global_local,2020.2.4,None,
1,2,smallHcongr,Stimuli/HofH2.jpg,f,right,,,,,,,,,0,0,0,4,,,,,,,,,,,,,,,,,,,,,0,80.17431132399997,None,None,1,80.17431132399997,None,81.5082797,None,81.5082797,None,f,1,0.9137338030000137,81.5082797,None,None,81.5082797,None,,,,1,2,2021_Jan_13_1336,global_local,2020.2.4,None,
1,3,smallHincon,Stimuli/SofH2.jpg,f,left,,,,,,,,,0,1,1,1,,,,,,,,,,,,,,,,,,,,,0,82.44125412099993,None,None,1,82.44125412099993,None,84.12474955399989,None,84.12474955399989,None,f,1,3.2381919500001004,84.12474955399989,None,None,84.12474955399989,None,,,,1,2,2021_Jan_13_1336,global_local,2020.2.4,None,
1,1,smallHcongr,Stimuli/HofH2.jpg,f,left,,,,,,,,,0,2,2,0,,,,,,,,,,,,,,,,,,,,,0,87.39116063899996,None,None,1,87.39116063899996,None,88.84167697499993,None,88.84167697499993,None,f,1,0.19516051899995546,88.84167697499993,None,None,88.84167697499993,None,,,,1,2,2021_Jan_13_1336,global_local,2020.2.4,None,
1,7,smallSincon,Stimuli/HofS2.jpg,j,left,,,,,,,,,0,3,3,3,,,,,,,,,,,,,,,,,,,,,0,89.05836856199994,None,None,1,89.05836856199994,None,90.6749590139998,None,90.6749590139998,None,f,0,0.4618261870000424,90.6749590139998,None,None,90.6749590139998,None,,,,1,2,2021_Jan_13_1336,global_local,2020.2.4,None,
1,5,smallScongr,Stimuli/SofS2.jpg,j,left,,,,,,,,,0,4,4,2,,,,,,,,,,,,,,,,,,,,,0,91.15798652299986,None,None,1,91.15798652299986,None,92.84170097799984,None,92.84170097799984,None,f,0,0.26650336900002003,92.84170097799984,None,None,92.84170097799984,None,,,,1,2,2021_Jan_13_1336,global_local,2020.2.4,None,
1,5,smallScongr,Stimuli/SofS2.jpg,j,left,,,,,,,,,0,5,5,2,,,,,,,,,,,,,,,,,,,,,0,93.12503912899979,None,None,1,93.12503912899979,None,94.54170982299979,None,94.54170982299979,None,f,0,0.041881783999997424,94.54170982299979,None,None,94.54170982299979,None,,,,1,2,2021_Jan_13_1336,global_local,2020.2.4,None,
1,4,smallHincon,Stimuli/SofH2.jpg,f,right,,,,,,,,,0,6,6,5,,,,,,,,,,,,,,,,,,,,,0,94.60834150899996,None,None,1,94.60834150899996,None,96.27500999799986,None,96.27500999799986,None,f,1,0.39822126600006413,96.27500999799986,None,None,96.27500999799986,None,,,,1,2,2021_Jan_13_1336,global_local,2020.2.4,None,
1,1,smallHcongr,Stimuli/HofH2.jpg,f,left,,,,,,,,,0,7,7,0,,,,,,,,,,,,,,,,,,,,,0,96.69174996799984,None,None,1,96.69174996799984,None,98.0250654429999,None,98.0250654429999,None,f,1,0.04750678000004882,98.0250654429999,None,None,98.0250654429999,None,,,,1,2,2021_Jan_13_1336,global_local,2020.2.4,None,
1,7,smallSincon,Stimuli/HofS2.jpg,j,left,,,,,,,,,1,0,8,3,,,,,,,,,,,,,,,,,,,,,0,98.09178743999996,None,None,1,98.09178743999996,None,99.60840155399978,None,99.60840155399978,None,f,0,0.261471808999886,99.60840155399978,None,None,99.60840155399978,None,,,,1,2,2021_Jan_13_1336,global_local,2020.2.4,None,
1,7,smallSincon,Stimuli/HofS2.jpg,j,left,,,,,,,,,1,1,9,3,,,,,,,,,,,,,,,,,,,,,0,99.8915987009998,None,None,1,99.8915987009998,None,101.60830514999998,None,101.60830514999998,None,f,0,0.23760352800013607,101.60830514999998,None,None,101.60830514999998,None,,,,1,2,2021_Jan_13_1336,global_local,2020.2.4,None,
1,6,smallScongr,Stimuli/SofS2.jpg,j,right,,,,,,,,,1,2,10,6,,,,,,,,,,,,,,,,,,,,,0,101.8746834489998,None,None,1,101.8746834489998,None,103.57507491899992,None,103.57507491899992,None,f,0,0.11860845399996833,103.57507491899992,None,None,103.57507491899992,None,,,,1,2,2021_Jan_13_1336,global_local,2020.2.4,None,
1,8,smallSincon,Stimuli/HofS2.jpg,j,right,,,,,,,,,1,3,11,7,,,,,,,,,,,,,,,,,,,,,0,103.72515419199999,None,None,1,103.72515419199999,None,105.14176102499982,None,105.14176102499982,None,f,0,0.2405826850001631,105.14176102499982,None,None,105.14176102499982,None,,,,1,2,2021_Jan_13_1336,global_local,2020.2.4,None,
1,6,smallScongr,Stimuli/SofS2.jpg,j,right,,,,,,,,,1,4,12,6,,,,,,,,,,,,,,,,,,,,,0,105.40839685599985,None,None,1,105.40839685599985,None,107.07509616799985,None,107.07509616799985,None,f,0,0.09238649100007024,107.07509616799985,None,None,107.07509616799985,None,,,,1,2,2021_Jan_13_1336,global_local,2020.2.4,None,
1,8,smallSincon,Stimuli/HofS2.jpg,j,right,,,,,,,,,1,5,13,7,,,,,,,,,,,,,,,,,,,,,0,107.19175705099997,None,None,1,107.19175705099997,None,108.67509863799978,None,108.67509863799978,None,f,0,0.13878650900005596,108.67509863799978,None,None,108.67509863799978,None,,,,1,2,2021_Jan_13_1336,global_local,2020.2.4,None,
1,6,smallScongr,Stimuli/SofS2.jpg,j,right,,,,,,,,,1,6,14,6,,,,,,,,,,,,,,,,,,,,,1,108.84149675399999,None,space,1,108.84149675399999,None,110.14163721699992,None,110.14163721699992,None,f,0,0.19164861399985966,110.14163721699992,None,None,110.14163721699992,None,0.623309860000063,,,1,2,2021_Jan_13_1336,global_local,2020.2.4,None,
1,5,smallScongr,Stimuli/SofS2.jpg,j,left,,,,,,,,,1,7,15,2,,,,,,,,,,,,,,,,,,,,,0,110.35843645399996,None,None,1,110.35843645399996,None,111.84177236399978,None,111.84177236399978,None,f,0,0.23003015799986315,111.84177236399978,None,None,111.84177236399978,None,,,,1,2,2021_Jan_13_1336,global_local,2020.2.4,None,
1,3,smallHincon,Stimuli/SofH2.jpg,f,left,,,,,,,,,2,0,16,1,,,,,,,,,,,,,,,,,,,,,0,112.091402303,None,None,1,112.091402303,None,113.37511787199992,None,113.37511787199992,None,f,1,0.12366553799984104,113.37511787199992,None,None,113.37511787199992,None,,,,1,2,2021_Jan_13_1336,global_local,2020.2.4,None,
1,6,smallScongr,Stimuli/SofS2.jpg,j,right,,,,,,,,,2,1,17,6,,,,,,,,,,,,,,,,,,,,,1,113.52513320899993,None,space,1,113.52513320899993,None,114.99188103699998,None,114.99188103699998,None,f,0,0.3406766380001045,114.99188103699998,None,None,114.99188103699998,None,0.4525784049999402,,,1,2,2021_Jan_13_1336,global_local,2020.2.4,None,
1,1,smallHcongr,Stimuli/HofH2.jpg,f,left,,,,,,,,,2,2,18,0,,,,,,,,,,,,,,,,,,,,,0,115.35843404699995,None,None,1,115.35843404699995,None,116.7751808019998,None,116.7751808019998,None,f,1,0.22999533899997004,116.7751808019998,None,None,116.7751808019998,None,,,,1,2,2021_Jan_13_1336,global_local,2020.2.4,None,
1,1,smallHcongr,Stimuli/HofH2.jpg,f,left,,,,,,,,,2,3,19,0,,,,,,,,,,,,,,,,,,,,,0,117.02513743199984,None,None,1,117.02513743199984,None,118.39187853599992,None,118.39187853599992,None,f,1,0.32386580099978346,118.39187853599992,None,None,118.39187853599992,None,,,,1,2,2021_Jan_13_1336,global_local,2020.2.4,None,
1,3,smallHincon,Stimuli/SofH2.jpg,f,left,,,,,,,,,2,4,20,1,,,,,,,,,,,,,,,,,,,,,0,118.74166172699984,None,None,1,118.74166172699984,None,120.29198564599983,None,120.29198564599983,None,f,1,0.000587299000017083,120.29198564599983,None,None,120.29198564599983,None,,,,1,2,2021_Jan_13_1336,global_local,2020.2.4,None,
1,1,smallHcongr,Stimuli/HofH2.jpg,f,left,,,,,,,,,2,5,21,0,,,,,,,,,,,,,,,,,,,,,0,120.32489696099992,None,None,1,120.32489696099992,None,121.92526840099981,None,121.92526840099981,None,f,1,0.3079713179999999,121.92526840099981,None,None,121.92526840099981,None,,,,1,2,2021_Jan_13_1336,global_local,2020.2.4,None,
1,3,smallHincon,Stimuli/SofH2.jpg,f,left,,,,,,,,,2,6,22,1,,,,,,,,,,,,,,,,,,,,,0,122.2586269379999,None,None,1,122.2586269379999,None,123.9420598329998,None,123.9420598329998,None,f,1,0.22986278000007587,123.9420598329998,None,None,123.9420598329998,None,,,,1,2,2021_Jan_13_1336,global_local,2020.2.4,None,
1,2,smallHcongr,Stimuli/HofH2.jpg,f,right,,,,,,,,,2,7,23,4,,,,,,,,,,,,,,,,,,,,,1,124.19154401599985,None,space,1,124.19154401599985,None,125.45821298499982,None,125.45821298499982,None,f,1,0.2771422440000606,125.45821298499982,None,None,125.45821298499982,None,0.6359232749998682,,,1,2,2021_Jan_13_1336,global_local,2020.2.4,None,
1,7,smallSincon,Stimuli/HofS2.jpg,j,left,,,,,,,,,3,0,24,3,,,,,,,,,,,,,,,,,,,,,0,125.75858387099993,None,None,1,125.75858387099993,None,127.42500172099994,None,127.42500172099994,None,f,0,0.18081105900000694,127.42500172099994,None,None,127.42500172099994,None,,,,1,2,2021_Jan_13_1336,global_local,2020.2.4,None,
1,7,smallSincon,Stimuli/HofS2.jpg,j,left,,,,,,,,,3,1,25,3,,,,,,,,,,,,,,,,,,,,,0,127.62460498199994,None,None,1,127.62460498199994,None,129.14196738399983,None,129.14196738399983,None,f,0,0.2358122519999597,129.14196738399983,None,None,129.14196738399983,None,,,,1,2,2021_Jan_13_1336,global_local,2020.2.4,None,
1,2,smallHcongr,Stimuli/HofH2.jpg,f,right,,,,,,,,,3,2,26,4,,,,,,,,,,,,,,,,,,,,,0,129.40832856999987,None,None,1,129.40832856999987,None,131.0086122759999,None,131.0086122759999,None,f,1,0.22827733100007208,131.0086122759999,None,None,131.0086122759999,None,,,,1,2,2021_Jan_13_1336,global_local,2020.2.4,None,
1,2,smallHcongr,Stimuli/HofH2.jpg,f,right,,,,,,,,,3,3,27,4,,,,,,,,,,,,,,,,,,,,,1,131.25827980999998,None,space,1,131.25827980999998,None,132.54174289599996,None,132.54174289599996,None,f,1,0.6904879460000757,132.54174289599996,None,None,132.54174289599996,None,0.5570891039999424,,,1,2,2021_Jan_13_1336,global_local,2020.2.4,None,
1,2,smallHcongr,Stimuli/HofH2.jpg,f,right,,,,,,,,,3,4,28,4,,,,,,,,,,,,,,,,,,,,,0,133.25863697199998,None,None,1,133.25863697199998,None,134.9253271419998,None,134.9253271419998,None,f,1,0.33682942299992646,134.9253271419998,None,None,134.9253271419998,None,,,,1,2,2021_Jan_13_1336,global_local,2020.2.4,None,
1,8,smallSincon,Stimuli/HofS2.jpg,j,right,,,,,,,,,3,5,29,7,,,,,,,,,,,,,,,,,,,,,0,135.29204788399989,None,None,1,135.29204788399989,None,136.7420034339998,None,136.7420034339998,None,f,0,0.2832697940000344,136.7420034339998,None,None,136.7420034339998,None,,,,1,2,2021_Jan_13_1336,global_local,2020.2.4,None,
1,1,smallHcongr,Stimuli/HofH2.jpg,f,left,,,,,,,,,3,6,30,0,,,,,,,,,,,,,,,,,,,,,1,137.04170401099987,None,space,1,137.04170401099987,None,138.758052788,None,138.758052788,None,f,1,0.5499702419999721,138.758052788,None,None,138.758052788,None,0.4197977010001068,,,1,2,2021_Jan_13_1336,global_local,2020.2.4,None,
1,5,smallScongr,Stimuli/SofS2.jpg,j,left,,,,,,,,,3,7,31,2,,,,,,,,,,,,,,,,,,,,,1,139.32541174599987,None,space,1,139.32541174599987,None,140.8420181429999,None,140.8420181429999,None,f,0,0.36285074900001746,140.8420181429999,None,None,140.8420181429999,None,0.5360306729999138,,,1,2,2021_Jan_13_1336,global_local,2020.2.4,None,
1,4,smallHincon,Stimuli/SofH2.jpg,f,right,,,,,,,,,4,0,32,5,,,,,,,,,,,,,,,,,,,,,0,141.22506241099995,None,None,1,141.22506241099995,None,142.75871316599978,None,142.75871316599978,None,f,1,0.3867632690000846,142.75871316599978,None,None,142.75871316599978,None,,,,1,2,2021_Jan_13_1336,global_local,2020.2.4,None,
1,5,smallScongr,Stimuli/SofS2.jpg,j,left,,,,,,,,,4,1,33,2,,,,,,,,,,,,,,,,,,,,,0,143.17500815699987,None,None,1,143.17500815699987,None,144.45872901199982,None,144.45872901199982,None,f,0,0.6731368060000023,144.45872901199982,None,space,144.45872901199982,None,,0.31864831100006086,,1,2,2021_Jan_13_1336,global_local,2020.2.4,None,
1,8,smallSincon,Stimuli/HofS2.jpg,j,right,,,,,,,,,4,2,34,7,,,,,,,,,,,,,,,,,,,,,0,145.15860889499982,None,None,1,145.15860889499982,None,146.458755097,None,146.458755097,None,f,0,0.3143079320000197,146.458755097,None,None,146.458755097,None,,,,1,2,2021_Jan_13_1336,global_local,2020.2.4,None,
1,4,smallHincon,Stimuli/SofH2.jpg,f,right,,,,,,,,,4,3,35,5,,,,,,,,,,,,,,,,,,,,,0,146.79174088799982,None,None,1,146.79174088799982,None,148.50877706699998,None,148.50877706699998,None,f,1,0.2570758049998858,148.50877706699998,None,None,148.50877706699998,None,,,,1,2,2021_Jan_13_1336,global_local,2020.2.4,None,
1,4,smallHincon,Stimuli/SofH2.jpg,f,right,,,,,,,,,4,4,36,5,,,,,,,,,,,,,,,,,,,,,1,148.79179209799986,None,space,1,148.79179209799986,None,150.1919715449999,None,150.1919715449999,None,f,1,0.27107295299992984,150.1919715449999,None,None,150.1919715449999,None,0.5032908250000219,,,1,2,2021_Jan_13_1336,global_local,2020.2.4,None,
1,5,smallScongr,Stimuli/SofS2.jpg,j,left,,,,,,,,,4,5,37,2,,,,,,,,,,,,,,,,,,,,,0,150.49176867899996,None,None,1,150.49176867899996,None,151.79216258899987,None,151.79216258899987,None,f,0,0.25867634999985967,151.79216258899987,None,None,151.79216258899987,None,,,,1,2,2021_Jan_13_1336,global_local,2020.2.4,None,
1,4,smallHincon,Stimuli/SofH2.jpg,f,right,,,,,,,,,4,6,38,5,,,,,,,,,,,,,,,,,,,,,1,152.07512383499989,None,space,1,152.07512383499989,None,153.408824182,None,153.408824182,None,f,1,0.35472732599987467,153.408824182,None,None,153.408824182,None,0.5566035619999639,,,1,2,2021_Jan_13_1336,global_local,2020.2.4,None,
1,3,smallHincon,Stimuli/SofH2.jpg,f,left,,,,,,,,,4,7,39,1,,,,,,,,,,,,,,,,,,,,,0,153.79180168699986,None,None,1,153.79180168699986,None,155.22547253899984,None,155.22547253899984,None,f,1,0.362351604999958,155.22547253899984,None,None,155.22547253899984,None,,,,1,2,2021_Jan_13_1336,global_local,2020.2.4,None,
1,8,smallSincon,Stimuli/HofS2.jpg,j,right,,,,,,,,,5,0,40,7,,,,,,,,,,,,,,,,,,,,,0,155.60849114099983,None,None,1,155.60849114099983,None,157.09211856299999,None,157.09211856299999,None,f,0,0.38439635200006705,157.09211856299999,None,None,157.09211856299999,None,,,,1,2,2021_Jan_13_1336,global_local,2020.2.4,None,
1,6,smallScongr,Stimuli/SofS2.jpg,j,right,,,,,,,,,5,1,41,6,,,,,,,,,,,,,,,,,,,,,0,157.5088591829999,None,None,1,157.5088591829999,None,158.89216995499987,None,158.89216995499987,None,f,0,0.2459257410000646,158.89216995499987,None,None,158.89216995499987,None,,,,1,2,2021_Jan_13_1336,global_local,2020.2.4,None,
1,6,smallScongr,Stimuli/SofS2.jpg,j,right,,,,,,,,,5,2,42,6,,,,,,,,,,,,,,,,,,,,,0,159.15840839899988,None,None,1,159.15840839899988,None,160.55884953399982,None,160.55884953399982,None,f,0,0.4324526660000174,160.55884953399982,None,None,160.55884953399982,None,,,,1,2,2021_Jan_13_1336,global_local,2020.2.4,None,
1,2,smallHcongr,Stimuli/HofH2.jpg,f,right,,,,,,,,,5,3,43,4,,,,,,,,,,,,,,,,,,,,,1,161.00863161999996,None,space,1,161.00863161999996,None,162.39201033799986,None,162.39201033799986,None,f,1,0.7181911200000286,162.39201033799986,None,space,162.39201033799986,None,0.5158033499999419,0.4402508770001532,,1,2,2021_Jan_13_1336,global_local,2020.2.4,None,
1,8,smallSincon,Stimuli/HofS2.jpg,j,right,,,,,,,,,5,4,44,7,,,,,,,,,,,,,,,,,,,,,1,163.14215780299992,None,space,1,163.14215780299992,None,164.7088062209998,None,164.7088062209998,None,f,0,0.4916565780001747,164.7088062209998,None,None,164.7088062209998,None,0.7688125160000254,,,1,2,2021_Jan_13_1336,global_local,2020.2.4,None,
1,7,smallSincon,Stimuli/HofS2.jpg,j,left,,,,,,,,,5,5,45,3,,,,,,,,,,,,,,,,,,,,,0,165.2255628429998,None,None,1,165.2255628429998,None,166.8252430299999,None,166.8252430299999,None,f,0,0.2802801020000061,166.8252430299999,None,None,166.8252430299999,None,,,,1,2,2021_Jan_13_1336,global_local,2020.2.4,None,
1,3,smallHincon,Stimuli/SofH2.jpg,f,left,,,,,,,,,5,6,46,1,,,,,,,,,,,,,,,,,,,,,0,167.12514223199992,None,None,1,167.12514223199992,None,168.69204430399986,None,168.69204430399986,None,f,1,0.16271199299990258,168.69204430399986,None,None,168.69204430399986,None,,,,1,2,2021_Jan_13_1336,global_local,2020.2.4,None,
1,4,smallHincon,Stimuli/SofH2.jpg,f,right,,,,,,,,,5,7,47,5,,,,,,,,,,,,,,,,,,,,,1,168.87515818099996,None,space,1,168.87515818099996,None,170.52563777599994,None,170.52563777599994,None,f,1,0.38789415200017174,170.52563777599994,None,None,170.52563777599994,None,0.5086762789999284,,,1,2,2021_Jan_13_1336,global_local,2020.2.4,None,
,,,,,,,,,,,,,,,,,,,,,,,,181.69203845499987,None,j,1,3.712059543000123,,,,,,,,,,,,,,,,,,,,,,,,,,,,,,,,1,2,2021_Jan_13_1336,global_local,2020.2.4,None,
