runID,imgID,stimLabel,imFile,corr,side,repeats.thisRepN,repeats.thisTrialN,repeats.thisN,repeats.thisIndex,prac_trials_run1.thisRepN,prac_trials_run1.thisTrialN,prac_trials_run1.thisN,prac_trials_run1.thisIndex,trials_run1.thisRepN,trials_run1.thisTrialN,trials_run1.thisN,trials_run1.thisIndex,X Scale,Y Scale,text_8.started,text_8.stopped,hand_hold_resp.keys,hand_hold_resp.corr,hand_hold_resp.rt,fixpR1,prac_resp.keys,prac_resp.corr,prac_fix_resp.keys,prac_fix_resp.corr,feedback_msg.started,feedback_msg.stopped,prac_resp.rt,prac_fix_resp.rt,fixR1,text_2.started,text_2.stopped,fix_resp1_1.keys,fix_resp1_1.corr,fix_resp1_1.started,fix_resp1_1.stopped,text_6.started,text_6.stopped,trial_image.started,trial_image.stopped,trial_resp.keys,trial_resp.corr,trial_resp.rt,trial_resp.started,trial_resp.stopped,fix_resp_2.keys,fix_resp_2.started,fix_resp_2.stopped,fix_resp1_1.rt,image_4.started,image_4.stopped,text_10.started,text_10.stopped,participant,design,position,date,expName,psychopyVersion,frameRate,
,,,,,,,,,,,,,,,,,,0.05,0.05,40.878017988055944,None,j,1,0.9086402161046863,,,,,,,,,,,,,,,,,,,,,,,,,,,,,,,,,,,1,2,2020_Dec_29_1001,global_local,2020.2.4,None,
1,5,smallScongr,Stimuli/SofS2.jpg,j,left,0,0,0,0,0,0,0,0,,,,,,,,,,,,0,None,0,None,1,50.29484132723883,None,,,,,,,,,,,,,,,,,,,,,,,,,,,,1,2,2020_Dec_29_1001,global_local,2020.2.4,None,
1,7,smallSincon,Stimuli/HofS2.jpg,j,left,0,0,0,0,0,1,1,3,,,,,,,,,,,,0,None,0,None,1,57.91068231733516,None,,,,,,,,,,,,,,,,,,,,,,,,,,,,1,2,2020_Dec_29_1001,global_local,2020.2.4,None,
1,6,smallScongr,Stimuli/SofS2.jpg,j,right,0,0,0,0,0,2,2,5,,,,,,,,,,,,1,j,1,None,0,65.3940742011182,None,1.0688680079765618,,,,,,,,,,,,,,,,,,,,,,,,,,,1,2,2020_Dec_29_1001,global_local,2020.2.4,None,
1,3,smallHincon,Stimuli/SofH2.jpg,f,left,0,0,0,0,0,3,3,4,,,,,,,,,,,,1,f,1,space,1,72.99463997920975,None,0.8438971140421927,0.6078942520543933,,,,,,,,,,,,,,,,,,,,,,,,,,1,2,2020_Dec_29_1001,global_local,2020.2.4,None,
1,8,smallSincon,Stimuli/HofS2.jpg,j,right,0,0,0,0,0,4,4,2,,,,,,,,,,,,0,j,1,None,1,80.728475401178,None,1.223866350017488,,,,,,,,,,,,,,,,,,,,,,,,,,,1,2,2020_Dec_29_1001,global_local,2020.2.4,None,
1,4,smallHincon,Stimuli/SofH2.jpg,f,right,0,0,0,0,0,5,5,1,,,,,,,,,,,,0,f,1,None,1,87.99526054598391,None,0.8566373768262565,,,,,,,,,,,,,,,,,,,,,,,,,,,1,2,2020_Dec_29_1001,global_local,2020.2.4,None,
1,7,smallSincon,Stimuli/HofS2.jpg,j,left,1,0,1,0,0,0,0,3,,,,,,,,,,,,0,j,1,None,1,97.16189497616142,None,0.7045056810602546,,,,,,,,,,,,,,,,,,,,,,,,,,,1,2,2020_Dec_29_1001,global_local,2020.2.4,None,
1,6,smallScongr,Stimuli/SofS2.jpg,j,right,1,0,1,0,0,1,1,5,,,,,,,,,,,,0,j,1,None,1,104.77863688906655,None,0.9674314549192786,,,,,,,,,,,,,,,,,,,,,,,,,,,1,2,2020_Dec_29_1001,global_local,2020.2.4,None,
1,2,smallHcongr,Stimuli/HofH2.jpg,f,right,1,0,1,0,0,2,2,2,,,,,,,,,,,,1,f,1,space,1,112.26196932327002,None,0.840159242041409,-0.6953732683323324,,,,,,,,,,,,,,,,,,,,,,,,,,1,2,2020_Dec_29_1001,global_local,2020.2.4,None,
1,4,smallHincon,Stimuli/SofH2.jpg,f,right,1,0,1,0,0,3,3,0,,,,,,,,,,,,1,f,1,space,1,119.57887125434354,None,2.7289928500540555,3.3875656318850815,,,,,,,,,,,,,,,,,,,,,,,,,,1,2,2020_Dec_29_1001,global_local,2020.2.4,None,
1,8,smallSincon,Stimuli/HofS2.jpg,j,right,1,0,1,0,0,4,4,4,,,,,,,,,,,,0,j,1,None,1,127.31159164430574,None,0.9276285162195563,,,,,,,,,,,,,,,,,,,,,,,,,,,1,2,2020_Dec_29_1001,global_local,2020.2.4,None,
1,1,smallHcongr,Stimuli/HofH2.jpg,f,left,1,0,1,0,0,5,5,1,,,,,,,,,,,,0,f,1,None,1,134.96203986229375,None,0.600290416739881,,,,,,,,,,,,,,,,,,,,,,,,,,,1,2,2020_Dec_29_1001,global_local,2020.2.4,None,
1,1,smallHcongr,Stimuli/HofH2.jpg,f,left,,,,,,,,,0,0,0,0,,,,,,,,,,,,,,,,,0,175.64543200843036,None,None,1,175.64543200843036,None,176.91265799943358,None,176.91265799943358,None,f,1,0.8031598357483745,176.91265799943358,None,None,176.91265799943358,None,,,,,,,1,2,2020_Dec_29_1001,global_local,2020.2.4,None,
1,2,smallHcongr,Stimuli/HofH2.jpg,f,right,,,,,,,,,0,1,1,4,,,,,,,,,,,,,,,,,1,177.74586668610573,None,space,1,177.74586668610573,None,179.17936850106344,None,179.17936850106344,None,f,1,0.714134206995368,179.17936850106344,None,None,179.17936850106344,None,0.7000036239624023,,,,,,1,2,2020_Dec_29_1001,global_local,2020.2.4,None,
1,1,smallHcongr,Stimuli/HofH2.jpg,f,left,,,,,,,,,0,2,2,0,,,,,,,,,,,,,,,,,1,179.91269326023757,None,space,1,179.91269326023757,None,181.61270482931286,None,181.61270482931286,None,f,1,0.7118543148972094,181.61270482931286,None,None,181.61270482931286,None,0.6337998448871076,,,,,,1,2,2020_Dec_29_1001,global_local,2020.2.4,None,
1,7,smallSincon,Stimuli/HofS2.jpg,j,left,,,,,,,,,0,3,3,3,,,,,,,,,,,,,,,,,0,182.34579454222694,None,None,1,182.34579454222694,None,183.64587346930057,None,183.64587346930057,None,j,1,0.7030078051611781,183.64587346930057,None,None,183.64587346930057,None,,,,,,,1,2,2020_Dec_29_1001,global_local,2020.2.4,None,
1,2,smallHcongr,Stimuli/HofH2.jpg,f,right,,,,,,,,,0,4,4,4,,,,,,,,,,,,,,,,,0,184.37923082802445,None,None,1,184.37923082802445,None,185.67916514817625,None,185.67916514817625,None,f,1,0.9537230171263218,185.67916514817625,None,None,185.67916514817625,None,,,,,,,1,2,2020_Dec_29_1001,global_local,2020.2.4,None,
1,1,smallHcongr,Stimuli/HofH2.jpg,f,left,,,,,,,,,0,5,5,0,,,,,,,,,,,,,,,,,1,186.66257446305826,None,space,1,186.66257446305826,None,188.36275183130056,None,188.36275183130056,None,f,1,0.7941749817691743,188.36275183130056,None,None,188.36275183130056,None,0.5479436703026295,,,,,,1,2,2020_Dec_29_1001,global_local,2020.2.4,None,
1,5,smallScongr,Stimuli/SofS2.jpg,j,left,,,,,,,,,0,6,6,2,,,,,,,,,,,,,,,,,0,189.1793818040751,None,None,1,189.1793818040751,None,190.612801451236,None,190.612801451236,None,j,1,0.5932679041288793,190.612801451236,None,None,190.612801451236,None,,,,,,,1,2,2020_Dec_29_1001,global_local,2020.2.4,None,
1,4,smallHincon,Stimuli/SofH2.jpg,f,right,,,,,,,,,0,7,7,5,,,,,,,,,,,,,,,,,0,191.22958658542484,None,None,1,191.22958658542484,None,192.81258325325325,None,192.81258325325325,None,f,1,0.7057783738709986,192.81258325325325,None,None,192.81258325325325,None,,,,,,,1,2,2020_Dec_29_1001,global_local,2020.2.4,None,
1,8,smallSincon,Stimuli/HofS2.jpg,j,right,,,,,,,,,1,0,8,7,,,,,,,,,,,,,,,,,0,193.5459412042983,None,None,1,193.5459412042983,None,194.96247199503705,None,194.96247199503705,None,j,1,0.6293262890540063,194.96247199503705,None,None,194.96247199503705,None,,,,,,,1,2,2020_Dec_29_1001,global_local,2020.2.4,None,
1,6,smallScongr,Stimuli/SofS2.jpg,j,right,,,,,,,,,1,1,9,6,,,,,,,,,,,,,,,,,0,195.6126504703425,None,None,1,195.6126504703425,None,197.1126951193437,None,197.1126951193437,None,j,1,0.5859255949035287,197.1126951193437,None,None,197.1126951193437,None,,,,,,,1,2,2020_Dec_29_1001,global_local,2020.2.4,None,
1,6,smallScongr,Stimuli/SofS2.jpg,j,right,,,,,,,,,1,2,10,6,,,,,,,,,,,,,,,,,0,197.72941178036854,None,None,1,197.72941178036854,None,199.2961977091618,None,199.2961977091618,None,j,1,0.8193555152975023,199.2961977091618,None,None,199.2961977091618,None,,,,,,,1,2,2020_Dec_29_1001,global_local,2020.2.4,None,
1,4,smallHincon,Stimuli/SofH2.jpg,f,right,,,,,,,,,1,3,11,5,,,,,,,,,,,,,,,,,0,200.12944777542725,None,None,1,200.12944777542725,None,201.46288443123922,None,201.46288443123922,None,f,1,0.5979709862731397,201.46288443123922,None,None,201.46288443123922,None,,,,,,,1,2,2020_Dec_29_1001,global_local,2020.2.4,None,
1,3,smallHincon,Stimuli/SofH2.jpg,f,left,,,,,,,,,1,4,12,1,,,,,,,,,,,,,,,,,0,202.07940896507353,None,None,1,202.07940896507353,None,203.396038279403,None,203.396038279403,None,f,1,0.7066782149486244,203.396038279403,None,None,203.396038279403,None,,,,,,,1,2,2020_Dec_29_1001,global_local,2020.2.4,None,
1,1,smallHcongr,Stimuli/HofH2.jpg,f,left,,,,,,,,,1,5,13,0,,,,,,,,,,,,,,,,,1,204.12928556837142,None,space,1,204.12928556837142,None,205.5458698081784,None,205.5458698081784,None,f,1,0.8734016898088157,205.5458698081784,None,None,205.5458698081784,None,0.6131521738134325,,,,,,1,2,2020_Dec_29_1001,global_local,2020.2.4,None,
1,4,smallHincon,Stimuli/SofH2.jpg,f,right,,,,,,,,,1,6,14,5,,,,,,,,,,,,,,,,,0,206.4460478783585,None,None,1,206.4460478783585,None,207.91302481107414,None,207.91302481107414,None,f,1,0.782773207873106,207.91302481107414,None,None,207.91302481107414,None,,,,,,,1,2,2020_Dec_29_1001,global_local,2020.2.4,None,
1,7,smallSincon,Stimuli/HofS2.jpg,j,left,,,,,,,,,1,7,15,3,,,,,,,,,,,,,,,,,1,208.71304963110015,None,space,1,208.71304963110015,None,210.29598176013678,None,210.29598176013678,None,j,1,0.6856536017730832,210.29598176013678,None,None,210.29598176013678,None,0.8309959270991385,,,,,,1,2,2020_Dec_29_1001,global_local,2020.2.4,None,
1,8,smallSincon,Stimuli/HofS2.jpg,j,right,,,,,,,,,2,0,16,7,,,,,,,,,,,,,,,,,1,210.99622790701687,None,space,1,210.99622790701687,None,212.5960596241057,None,212.5960596241057,None,j,1,0.7793031050823629,212.5960596241057,None,None,212.5960596241057,None,0.4770832876674831,,,,,,1,2,2020_Dec_29_1001,global_local,2020.2.4,None,
1,5,smallScongr,Stimuli/SofS2.jpg,j,left,,,,,,,,,2,1,17,2,,,,,,,,,,,,,,,,,0,213.39610594836995,None,None,1,213.39610594836995,None,215.12908769212663,None,215.12908769212663,None,j,1,0.785528751090169,215.12908769212663,None,None,215.12908769212663,None,,,,,,,1,2,2020_Dec_29_1001,global_local,2020.2.4,None,
1,8,smallSincon,Stimuli/HofS2.jpg,j,right,,,,,,,,,2,2,18,7,,,,,,,,,,,,,,,,,0,215.9457802893594,None,None,1,215.9457802893594,None,217.6796771241352,None,217.6796771241352,None,j,1,0.6444812468253076,217.6796771241352,None,None,217.6796771241352,None,,,,,,,1,2,2020_Dec_29_1001,global_local,2020.2.4,None,
1,3,smallHincon,Stimuli/SofH2.jpg,f,left,,,,,,,,,2,3,19,1,,,,,,,,,,,,,,,,,0,218.34637212799862,None,None,1,218.34637212799862,None,219.7629899312742,None,219.7629899312742,None,f,1,0.9895845269784331,219.7629899312742,None,None,219.7629899312742,None,,,,,,,1,2,2020_Dec_29_1001,global_local,2020.2.4,None,
1,1,smallHcongr,Stimuli/HofH2.jpg,f,left,,,,,,,,,2,4,20,0,,,,,,,,,,,,,,,,,0,220.7796276253648,None,None,1,220.7796276253648,None,222.2292641904205,None,222.2292641904205,None,f,1,0.7620960613712668,222.2292641904205,None,None,222.2292641904205,None,,,,,,,1,2,2020_Dec_29_1001,global_local,2020.2.4,None,
1,7,smallSincon,Stimuli/HofS2.jpg,j,left,,,,,,,,,2,5,21,3,,,,,,,,,,,,,,,,,0,223.01292534312233,None,None,1,223.01292534312233,None,224.6126721589826,None,224.6126721589826,None,j,1,0.5467342748306692,224.6126721589826,None,None,224.6126721589826,None,,,,,,,1,2,2020_Dec_29_1001,global_local,2020.2.4,None,
1,2,smallHcongr,Stimuli/HofH2.jpg,f,right,,,,,,,,,2,6,22,4,,,,,,,,,,,,,,,,,0,225.17958917515352,None,None,1,225.17958917515352,None,226.6458345851861,None,226.6458345851861,None,f,1,0.6429657721891999,226.6458345851861,None,None,226.6458345851861,None,,,,,,,1,2,2020_Dec_29_1001,global_local,2020.2.4,None,
1,8,smallSincon,Stimuli/HofS2.jpg,j,right,,,,,,,,,2,7,23,7,,,,,,,,,,,,,,,,,0,227.31228333339095,None,None,1,227.31228333339095,None,228.8465455742553,None,228.8465455742553,None,j,1,0.51080167805776,228.8465455742553,None,None,228.8465455742553,None,,,,,,,1,2,2020_Dec_29_1001,global_local,2020.2.4,None,
1,3,smallHincon,Stimuli/SofH2.jpg,f,left,,,,,,,,,3,0,24,1,,,,,,,,,,,,,,,,,0,229.3798082000576,None,None,1,229.3798082000576,None,230.9464423879981,None,230.9464423879981,None,f,1,0.6940397960133851,230.9464423879981,None,None,230.9464423879981,None,,,,,,,1,2,2020_Dec_29_1001,global_local,2020.2.4,None,
1,2,smallHcongr,Stimuli/HofH2.jpg,f,right,,,,,,,,,3,1,25,4,,,,,,,,,,,,,,,,,0,231.66322852112353,None,None,1,231.66322852112353,None,233.1628903672099,None,233.1628903672099,None,f,1,0.7299600359983742,233.1628903672099,None,None,233.1628903672099,None,,,,,,,1,2,2020_Dec_29_1001,global_local,2020.2.4,None,
1,6,smallScongr,Stimuli/SofS2.jpg,j,right,,,,,,,,,3,2,26,6,,,,,,,,,,,,,,,,,0,233.91297661233693,None,None,1,233.91297661233693,None,235.51284403540194,None,235.51284403540194,None,j,1,0.7080321009270847,235.51284403540194,None,None,235.51284403540194,None,,,,,,,1,2,2020_Dec_29_1001,global_local,2020.2.4,None,
1,5,smallScongr,Stimuli/SofS2.jpg,j,left,,,,,,,,,3,3,27,2,,,,,,,,,,,,,,,,,0,236.2463105591014,None,None,1,236.2463105591014,None,237.51317183999345,None,237.51317183999345,None,j,1,0.6794569767080247,237.51317183999345,None,None,237.51317183999345,None,,,,,,,1,2,2020_Dec_29_1001,global_local,2020.2.4,None,
1,4,smallHincon,Stimuli/SofH2.jpg,f,right,,,,,,,,,3,4,28,5,,,,,,,,,,,,,,,,,1,238.21330617321655,None,space,1,238.21330617321655,None,239.51313426112756,None,239.51313426112756,None,f,1,0.9936366709880531,239.51313426112756,None,None,239.51313426112756,None,0.5973532791249454,,,,,,1,2,2020_Dec_29_1001,global_local,2020.2.4,None,
1,5,smallScongr,Stimuli/SofS2.jpg,j,left,,,,,,,,,3,5,29,2,,,,,,,,,,,,,,,,,0,240.529684019275,None,None,1,240.529684019275,None,242.2463903450407,None,242.2463903450407,None,j,1,1.2400580160319805,242.2463903450407,None,None,242.2463903450407,None,,,,,,,1,2,2020_Dec_29_1001,global_local,2020.2.4,None,
1,3,smallHincon,Stimuli/SofH2.jpg,f,left,,,,,,,,,3,6,30,1,,,,,,,,,,,,,,,,,0,243.51304099103436,None,None,1,243.51304099103436,None,244.9457925320603,None,244.9457925320603,None,f,1,0.8503576330840588,244.9457925320603,None,None,244.9457925320603,None,,,,,,,1,2,2020_Dec_29_1001,global_local,2020.2.4,None,
1,8,smallSincon,Stimuli/HofS2.jpg,j,right,,,,,,,,,3,7,31,7,,,,,,,,,,,,,,,,,0,245.81304776202887,None,None,1,245.81304776202887,None,247.41335773421451,None,247.41335773421451,None,j,1,0.6280211405828595,247.41335773421451,None,None,247.41335773421451,None,,,,,,,1,2,2020_Dec_29_1001,global_local,2020.2.4,None,
1,8,smallSincon,Stimuli/HofS2.jpg,j,right,,,,,,,,,4,0,32,7,,,,,,,,,,,,,,,,,0,248.06319267628714,None,None,1,248.06319267628714,None,249.5299027361907,None,249.5299027361907,None,j,1,0.8996436567977071,249.5299027361907,None,None,249.5299027361907,None,,,,,,,1,2,2020_Dec_29_1001,global_local,2020.2.4,None,
1,6,smallScongr,Stimuli/SofS2.jpg,j,right,,,,,,,,,4,1,33,6,,,,,,,,,,,,,,,,,0,250.4462780850008,None,None,1,250.4462780850008,None,251.82985523343086,None,251.82985523343086,None,j,1,0.38576916698366404,251.82985523343086,None,None,251.82985523343086,None,,,,,,,1,2,2020_Dec_29_1001,global_local,2020.2.4,None,
1,7,smallSincon,Stimuli/HofS2.jpg,j,left,,,,,,,,,4,2,34,3,,,,,,,,,,,,,,,,,0,252.246370179113,None,None,1,252.246370179113,None,253.6797269009985,None,253.6797269009985,None,j,1,0.7919856407679617,253.6797269009985,None,None,253.6797269009985,None,,,,,,,1,2,2020_Dec_29_1001,global_local,2020.2.4,None,
1,7,smallSincon,Stimuli/HofS2.jpg,j,left,,,,,,,,,4,3,35,3,,,,,,,,,,,,,,,,,0,254.49642852600664,None,None,1,254.49642852600664,None,256.0132317082025,None,256.0132317082025,None,j,1,0.5631012422963977,256.0132317082025,None,None,256.0132317082025,None,,,,,,,1,2,2020_Dec_29_1001,global_local,2020.2.4,None,
1,2,smallHcongr,Stimuli/HofH2.jpg,f,right,,,,,,,,,4,4,36,4,,,,,,,,,,,,,,,,,1,256.5964905223809,None,space,1,256.5964905223809,None,257.9466424593702,None,257.9466424593702,None,f,1,0.7271592291072011,257.9466424593702,None,None,257.9466424593702,None,0.5383548960089684,,,,,,1,2,2020_Dec_29_1001,global_local,2020.2.4,None,
1,6,smallScongr,Stimuli/SofS2.jpg,j,right,,,,,,,,,4,5,37,6,,,,,,,,,,,,,,,,,1,258.69659454142675,None,space,1,258.69659454142675,None,260.0967534822412,None,260.0967534822412,None,j,1,0.9371185433119535,260.0967534822412,None,None,260.0967534822412,None,0.5381605620495975,,,,,,1,2,2020_Dec_29_1001,global_local,2020.2.4,None,
1,4,smallHincon,Stimuli/SofH2.jpg,f,right,,,,,,,,,4,6,38,5,,,,,,,,,,,,,,,,,1,261.06322200829163,None,space,1,261.06322200829163,None,262.5131424642168,None,262.5131424642168,None,j,0,0.7385204690508544,262.5131424642168,None,None,262.5131424642168,None,0.6494387667626143,,,,,,1,2,2020_Dec_29_1001,global_local,2020.2.4,None,
1,7,smallSincon,Stimuli/HofS2.jpg,j,left,,,,,,,,,4,7,39,3,,,,,,,,,,,,,,,,,0,263.27967186039314,None,None,1,263.27967186039314,None,264.9964973949827,None,264.9964973949827,None,j,1,0.7032487620599568,264.9964973949827,None,None,264.9964973949827,None,,,,,,,1,2,2020_Dec_29_1001,global_local,2020.2.4,None,
1,3,smallHincon,Stimuli/SofH2.jpg,f,left,,,,,,,,,5,0,40,1,,,,,,,,,,,,,,,,,0,265.7298034671694,None,None,1,265.7298034671694,None,267.39670643629506,None,267.39670643629506,None,j,0,0.9837907310575247,267.39670643629506,None,None,267.39670643629506,None,,,,,,,1,2,2020_Dec_29_1001,global_local,2020.2.4,None,
1,3,smallHincon,Stimuli/SofH2.jpg,f,left,,,,,,,,,5,1,41,1,,,,,,,,,,,,,,,,,1,268.3968664309941,None,space,1,268.3968664309941,None,269.7132674632594,None,269.7132674632594,None,f,1,0.7136375908739865,269.7132674632594,None,None,269.7132674632594,None,0.9005518429912627,,,,,,1,2,2020_Dec_29_1001,global_local,2020.2.4,None,
1,4,smallHincon,Stimuli/SofH2.jpg,f,right,,,,,,,,,5,2,42,5,,,,,,,,,,,,,,,,,0,270.446576571092,None,None,1,270.446576571092,None,271.76319065736607,None,271.76319065736607,None,f,1,0.9858067678287625,271.76319065736607,None,None,271.76319065736607,None,,,,,,,1,2,2020_Dec_29_1001,global_local,2020.2.4,None,
1,5,smallScongr,Stimuli/SofS2.jpg,j,left,,,,,,,,,5,3,43,2,,,,,,,,,,,,,,,,,0,272.7799452850595,None,None,1,272.7799452850595,None,274.12960786605254,None,274.12960786605254,None,j,1,0.6221104920841753,274.12960786605254,None,None,274.12960786605254,None,,,,,,,1,2,2020_Dec_29_1001,global_local,2020.2.4,None,
1,1,smallHcongr,Stimuli/HofH2.jpg,f,left,,,,,,,,,5,4,44,0,,,,,,,,,,,,,,,,,1,274.7799244890921,None,space,1,274.7799244890921,None,276.2632852010429,None,276.2632852010429,None,f,1,1.039908966049552,276.2632852010429,None,None,276.2632852010429,None,0.515880408231169,,,,,,1,2,2020_Dec_29_1001,global_local,2020.2.4,None,
1,5,smallScongr,Stimuli/SofS2.jpg,j,left,,,,,,,,,5,5,45,2,,,,,,,,,,,,,,,,,0,277.3302220152691,None,None,1,277.3302220152691,None,278.87977725220844,None,278.87977725220844,None,j,1,0.659229988232255,278.87977725220844,None,None,278.87977725220844,None,,,,,,,1,2,2020_Dec_29_1001,global_local,2020.2.4,None,
1,2,smallHcongr,Stimuli/HofH2.jpg,f,right,,,,,,,,,5,6,46,4,,,,,,,,,,,,,,,,,0,279.5634671743028,None,None,1,279.5634671743028,None,281.0466878223233,None,281.0466878223233,None,f,1,1.1548574203625321,281.0466878223233,None,None,281.0466878223233,None,,,,,,,1,2,2020_Dec_29_1001,global_local,2020.2.4,None,
1,6,smallScongr,Stimuli/SofS2.jpg,j,right,,,,,,,,,5,7,47,6,,,,,,,,,,,,,,,,,0,282.2301188400015,None,None,1,282.2301188400015,None,283.563122658059,None,283.563122658059,None,j,1,0.9944291319698095,283.563122658059,None,None,283.563122658059,None,,,,,,,1,2,2020_Dec_29_1001,global_local,2020.2.4,None,
,,,,,,,,,,,,,,,,,,,,,,,,,,,,,,,,,,,,,,,,,,,,,,,,,,,,,,284.5801572580822,None,284.5801572580822,None,,,,,,,,
