X Scale,Y Scale,hand_hold_resp.keys,hand_hold_resp.corr,hand_hold_resp.rt,fixpR1,prac_resp.keys,prac_resp.corr,prac_resp.rt,prac_fix_resp.keys,prac_fix_resp.corr,prac_trials_run1.thisRepN,prac_trials_run1.thisTrialN,prac_trials_run1.thisN,prac_trials_run1.thisIndex,prac_trials_run1.ran,runID,imgID,stimLabel,imFile,corr,side,participant,design,position,date,expName,psychopyVersion,OS,frameRate,xResolution,yResolution,fixR1,fix_resp1_1.keys,trial_resp.keys,trial_resp.corr,trial_resp.rt,fix_resp_2.keys,trials_run1.thisRepN,trials_run1.thisTrialN,trials_run1.thisN,trials_run1.thisIndex,trials_run1.ran,fix_resp1_1.rt,fix_resp_2.rt,fixpR2,fix_respP2_1.keys,prac_trials_run2.thisRepN,prac_trials_run2.thisTrialN,prac_trials_run2.thisN,prac_trials_run2.thisIndex,prac_trials_run2.ran,fix_respP2_1.rt,fixR2,fix_resp2_1.keys,trials_run2.thisRepN,trials_run2.thisTrialN,trials_run2.thisN,trials_run2.thisIndex,trials_run2.ran
0.0571,0.0572,j,1,1.038885,0,f,1,1.32271,,1,0,0,0,0,1,1,4,largeHincon,Stimuli/HofS2.jpg,f,right,DP,2,2,2020-11-16_09h58.36.036,global_local,2020.2.4,Linux x86_64,60,1920,1080,,,,,,,,,,,,,,,,,,,,,,,,,,,,
,,,,,1,j,1,0.793885,,0,0,1,1,1,1,1,7,largeSincon,Stimuli/SofH2.jpg,j,left,DP,2,2,2020-11-16_09h58.36.036,global_local,2020.2.4,Linux x86_64,60,1920,1080,,,,,,,,,,,,,,,,,,,,,,,,,,,,
,,,,,0,j,1,0.92312,,1,0,2,2,2,1,1,6,largeScongr,Stimuli/SofS2.jpg,j,right,DP,2,2,2020-11-16_09h58.36.036,global_local,2020.2.4,Linux x86_64,60,1920,1080,,,,,,,,,,,,,,,,,,,,,,,,,,,,
,,,,,0,f,1,1.07732,,1,0,3,3,3,1,1,2,largeHcongr,Stimuli/HofH2.jpg,f,right,DP,2,2,2020-11-16_09h58.36.036,global_local,2020.2.4,Linux x86_64,60,1920,1080,,,,,,,,,,,,,,,,,,,,,,,,,,,,
,,,,,,,,,,,,,,,,1,5,largeScongr,Stimuli/SofS2.jpg,j,left,DP,2,2,2020-11-16_09h58.36.036,global_local,2020.2.4,Linux x86_64,60,1920,1080,1,,j,1,0.673165,,0,0,0,2,1,,,,,,,,,,,,,,,,,
,,,,,,,,,,,,,,,,1,7,largeSincon,Stimuli/SofH2.jpg,j,left,DP,2,2,2020-11-16_09h58.36.036,global_local,2020.2.4,Linux x86_64,60,1920,1080,0,,j,1,0.845525,,0,1,1,3,1,,,,,,,,,,,,,,,,,
,,,,,,,,,,,,,,,,1,3,largeHincon,Stimuli/HofS2.jpg,f,left,DP,2,2,2020-11-16_09h58.36.036,global_local,2020.2.4,Linux x86_64,60,1920,1080,0,,f,1,0.758915,,0,2,2,1,1,,,,,,,,,,,,,,,,,
,,,,,,,,,,,,,,,,1,8,largeSincon,Stimuli/SofH2.jpg,j,right,DP,2,2,2020-11-16_09h58.36.036,global_local,2020.2.4,Linux x86_64,60,1920,1080,0,,j,1,0.81476,,0,3,3,7,1,,,,,,,,,,,,,,,,,
,,,,,,,,,,,,,,,,1,6,largeScongr,Stimuli/SofS2.jpg,j,right,DP,2,2,2020-11-16_09h58.36.036,global_local,2020.2.4,Linux x86_64,60,1920,1080,0,,j,1,0.590145,,0,4,4,6,1,,,,,,,,,,,,,,,,,
,,,,,,,,,,,,,,,,1,1,largeHcongr,Stimuli/HofH2.jpg,f,left,DP,2,2,2020-11-16_09h58.36.036,global_local,2020.2.4,Linux x86_64,60,1920,1080,0,,f,1,0.911805,,0,5,5,0,1,,,,,,,,,,,,,,,,,
,,,,,,,,,,,,,,,,1,2,largeHcongr,Stimuli/HofH2.jpg,f,right,DP,2,2,2020-11-16_09h58.36.036,global_local,2020.2.4,Linux x86_64,60,1920,1080,0,,f,1,1.042315,,0,6,6,4,1,,,,,,,,,,,,,,,,,
,,,,,,,,,,,,,,,,1,4,largeHincon,Stimuli/HofS2.jpg,f,right,DP,2,2,2020-11-16_09h58.36.036,global_local,2020.2.4,Linux x86_64,60,1920,1080,0,,f,1,0.7124,,0,7,7,5,1,,,,,,,,,,,,,,,,,
,,,,,,,,,,,,,,,,1,6,largeScongr,Stimuli/SofS2.jpg,j,right,DP,2,2,2020-11-16_09h58.36.036,global_local,2020.2.4,Linux x86_64,60,1920,1080,0,,j,1,0.59292,,1,0,8,6,1,,,,,,,,,,,,,,,,,
,,,,,,,,,,,,,,,,1,2,largeHcongr,Stimuli/HofH2.jpg,f,right,DP,2,2,2020-11-16_09h58.36.036,global_local,2020.2.4,Linux x86_64,60,1920,1080,0,,f,1,0.90697,,1,1,9,4,1,,,,,,,,,,,,,,,,,
,,,,,,,,,,,,,,,,1,1,largeHcongr,Stimuli/HofH2.jpg,f,left,DP,2,2,2020-11-16_09h58.36.036,global_local,2020.2.4,Linux x86_64,60,1920,1080,0,,f,1,0.988425,,1,2,10,0,1,,,,,,,,,,,,,,,,,
,,,,,,,,,,,,,,,,1,3,largeHincon,Stimuli/HofS2.jpg,f,left,DP,2,2,2020-11-16_09h58.36.036,global_local,2020.2.4,Linux x86_64,60,1920,1080,1,space,f,1,1.18932,,1,3,11,1,1,0.962565,,,,,,,,,,,,,,,,
,,,,,,,,,,,,,,,,1,8,largeSincon,Stimuli/SofH2.jpg,j,right,DP,2,2,2020-11-16_09h58.36.036,global_local,2020.2.4,Linux x86_64,60,1920,1080,0,,j,1,0.83046,,1,4,12,7,1,,,,,,,,,,,,,,,,,
,,,,,,,,,,,,,,,,1,4,largeHincon,Stimuli/HofS2.jpg,f,right,DP,2,2,2020-11-16_09h58.36.036,global_local,2020.2.4,Linux x86_64,60,1920,1080,0,,f,1,0.694605,,1,5,13,5,1,,,,,,,,,,,,,,,,,
,,,,,,,,,,,,,,,,1,7,largeSincon,Stimuli/SofH2.jpg,j,left,DP,2,2,2020-11-16_09h58.36.036,global_local,2020.2.4,Linux x86_64,60,1920,1080,0,,j,1,0.61267,,1,6,14,3,1,,,,,,,,,,,,,,,,,
,,,,,,,,,,,,,,,,1,5,largeScongr,Stimuli/SofS2.jpg,j,left,DP,2,2,2020-11-16_09h58.36.036,global_local,2020.2.4,Linux x86_64,60,1920,1080,0,,j,1,0.80806,,1,7,15,2,1,,,,,,,,,,,,,,,,,
,,,,,,,,,,,,,,,,1,3,largeHincon,Stimuli/HofS2.jpg,f,left,DP,2,2,2020-11-16_09h58.36.036,global_local,2020.2.4,Linux x86_64,60,1920,1080,0,,f,1,0.788845,,2,0,16,1,1,,,,,,,,,,,,,,,,,
,,,,,,,,,,,,,,,,1,6,largeScongr,Stimuli/SofS2.jpg,j,right,DP,2,2,2020-11-16_09h58.36.036,global_local,2020.2.4,Linux x86_64,60,1920,1080,0,,j,1,0.87872,,2,1,17,6,1,,,,,,,,,,,,,,,,,
,,,,,,,,,,,,,,,,1,7,largeSincon,Stimuli/SofH2.jpg,j,left,DP,2,2,2020-11-16_09h58.36.036,global_local,2020.2.4,Linux x86_64,60,1920,1080,0,,j,1,0.643345,,2,2,18,3,1,,,,,,,,,,,,,,,,,
,,,,,,,,,,,,,,,,1,2,largeHcongr,Stimuli/HofH2.jpg,f,right,DP,2,2,2020-11-16_09h58.36.036,global_local,2020.2.4,Linux x86_64,60,1920,1080,0,,f,1,0.70812,,2,3,19,4,1,,,,,,,,,,,,,,,,,
,,,,,,,,,,,,,,,,1,1,largeHcongr,Stimuli/HofH2.jpg,f,left,DP,2,2,2020-11-16_09h58.36.036,global_local,2020.2.4,Linux x86_64,60,1920,1080,0,,f,1,0.82805,,2,4,20,0,1,,,,,,,,,,,,,,,,,
,,,,,,,,,,,,,,,,1,8,largeSincon,Stimuli/SofH2.jpg,j,right,DP,2,2,2020-11-16_09h58.36.036,global_local,2020.2.4,Linux x86_64,60,1920,1080,0,,j,1,0.623215,,2,5,21,7,1,,,,,,,,,,,,,,,,,
,,,,,,,,,,,,,,,,1,4,largeHincon,Stimuli/HofS2.jpg,f,right,DP,2,2,2020-11-16_09h58.36.036,global_local,2020.2.4,Linux x86_64,60,1920,1080,1,space,f,1,0.847105,,2,6,22,5,1,0.67893,,,,,,,,,,,,,,,,
,,,,,,,,,,,,,,,,1,5,largeScongr,Stimuli/SofS2.jpg,j,left,DP,2,2,2020-11-16_09h58.36.036,global_local,2020.2.4,Linux x86_64,60,1920,1080,0,,j,1,0.69476,,2,7,23,2,1,,,,,,,,,,,,,,,,,
,,,,,,,,,,,,,,,,1,7,largeSincon,Stimuli/SofH2.jpg,j,left,DP,2,2,2020-11-16_09h58.36.036,global_local,2020.2.4,Linux x86_64,60,1920,1080,0,,j,1,0.72825,,3,0,24,3,1,,,,,,,,,,,,,,,,,
,,,,,,,,,,,,,,,,1,1,largeHcongr,Stimuli/HofH2.jpg,f,left,DP,2,2,2020-11-16_09h58.36.036,global_local,2020.2.4,Linux x86_64,60,1920,1080,0,,f,1,0.6572,,3,1,25,0,1,,,,,,,,,,,,,,,,,
,,,,,,,,,,,,,,,,1,4,largeHincon,Stimuli/HofS2.jpg,f,right,DP,2,2,2020-11-16_09h58.36.036,global_local,2020.2.4,Linux x86_64,60,1920,1080,0,,f,1,0.66095,,3,2,26,5,1,,,,,,,,,,,,,,,,,
,,,,,,,,,,,,,,,,1,8,largeSincon,Stimuli/SofH2.jpg,j,right,DP,2,2,2020-11-16_09h58.36.036,global_local,2020.2.4,Linux x86_64,60,1920,1080,1,space,j,1,0.82791,,3,3,27,7,1,0.95787,,,,,,,,,,,,,,,,
,,,,,,,,,,,,,,,,1,6,largeScongr,Stimuli/SofS2.jpg,j,right,DP,2,2,2020-11-16_09h58.36.036,global_local,2020.2.4,Linux x86_64,60,1920,1080,0,,j,1,1.00714,,3,4,28,6,1,,,,,,,,,,,,,,,,,
,,,,,,,,,,,,,,,,1,2,largeHcongr,Stimuli/HofH2.jpg,f,right,DP,2,2,2020-11-16_09h58.36.036,global_local,2020.2.4,Linux x86_64,60,1920,1080,0,,f,1,0.842595,,3,5,29,4,1,,,,,,,,,,,,,,,,,
,,,,,,,,,,,,,,,,1,3,largeHincon,Stimuli/HofS2.jpg,f,left,DP,2,2,2020-11-16_09h58.36.036,global_local,2020.2.4,Linux x86_64,60,1920,1080,0,,f,1,0.809485,,3,6,30,1,1,,,,,,,,,,,,,,,,,
,,,,,,,,,,,,,,,,1,5,largeScongr,Stimuli/SofS2.jpg,j,left,DP,2,2,2020-11-16_09h58.36.036,global_local,2020.2.4,Linux x86_64,60,1920,1080,0,,j,1,1.224,space,3,7,31,2,1,,0.58009,,,,,,,,,,,,,,,
,,,,,,,,,,,,,,,,1,6,largeScongr,Stimuli/SofS2.jpg,j,right,DP,2,2,2020-11-16_09h58.36.036,global_local,2020.2.4,Linux x86_64,60,1920,1080,1,space,j,1,1.142045,,4,0,32,6,1,1.208565,,,,,,,,,,,,,,,,
,,,,,,,,,,,,,,,,1,2,largeHcongr,Stimuli/HofH2.jpg,f,right,DP,2,2,2020-11-16_09h58.36.036,global_local,2020.2.4,Linux x86_64,60,1920,1080,0,,f,1,0.575655,,4,1,33,4,1,,,,,,,,,,,,,,,,,
,,,,,,,,,,,,,,,,1,1,largeHcongr,Stimuli/HofH2.jpg,f,left,DP,2,2,2020-11-16_09h58.36.036,global_local,2020.2.4,Linux x86_64,60,1920,1080,0,,f,1,0.760335,,4,2,34,0,1,,,,,,,,,,,,,,,,,
,,,,,,,,,,,,,,,,1,7,largeSincon,Stimuli/SofH2.jpg,j,left,DP,2,2,2020-11-16_09h58.36.036,global_local,2020.2.4,Linux x86_64,60,1920,1080,0,,j,1,0.67429,,4,3,35,3,1,,,,,,,,,,,,,,,,,
,,,,,,,,,,,,,,,,1,8,largeSincon,Stimuli/SofH2.jpg,j,right,DP,2,2,2020-11-16_09h58.36.036,global_local,2020.2.4,Linux x86_64,60,1920,1080,0,,j,1,0.728425,,4,4,36,7,1,,,,,,,,,,,,,,,,,
,,,,,,,,,,,,,,,,1,4,largeHincon,Stimuli/HofS2.jpg,f,right,DP,2,2,2020-11-16_09h58.36.036,global_local,2020.2.4,Linux x86_64,60,1920,1080,0,,f,1,0.68195,,4,5,37,5,1,,,,,,,,,,,,,,,,,
,,,,,,,,,,,,,,,,1,3,largeHincon,Stimuli/HofS2.jpg,f,left,DP,2,2,2020-11-16_09h58.36.036,global_local,2020.2.4,Linux x86_64,60,1920,1080,0,,f,1,0.7229,,4,6,38,1,1,,,,,,,,,,,,,,,,,
,,,,,,,,,,,,,,,,1,5,largeScongr,Stimuli/SofS2.jpg,j,left,DP,2,2,2020-11-16_09h58.36.036,global_local,2020.2.4,Linux x86_64,60,1920,1080,0,,j,1,0.74523,,4,7,39,2,1,,,,,,,,,,,,,,,,,
,,,,,,,,,,,,,,,,1,3,largeHincon,Stimuli/HofS2.jpg,f,left,DP,2,2,2020-11-16_09h58.36.036,global_local,2020.2.4,Linux x86_64,60,1920,1080,0,,f,1,1.27277,,5,0,40,1,1,,,,,,,,,,,,,,,,,
,,,,,,,,,,,,,,,,1,8,largeSincon,Stimuli/SofH2.jpg,j,right,DP,2,2,2020-11-16_09h58.36.036,global_local,2020.2.4,Linux x86_64,60,1920,1080,0,,j,1,0.880815,,5,1,41,7,1,,,,,,,,,,,,,,,,,
,,,,,,,,,,,,,,,,1,5,largeScongr,Stimuli/SofS2.jpg,j,left,DP,2,2,2020-11-16_09h58.36.036,global_local,2020.2.4,Linux x86_64,60,1920,1080,1,space,j,1,0.639215,,5,2,42,2,1,0.675485,,,,,,,,,,,,,,,,
,,,,,,,,,,,,,,,,1,6,largeScongr,Stimuli/SofS2.jpg,j,right,DP,2,2,2020-11-16_09h58.36.036,global_local,2020.2.4,Linux x86_64,60,1920,1080,0,,j,1,0.78903,,5,3,43,6,1,,,,,,,,,,,,,,,,,
,,,,,,,,,,,,,,,,1,2,largeHcongr,Stimuli/HofH2.jpg,f,right,DP,2,2,2020-11-16_09h58.36.036,global_local,2020.2.4,Linux x86_64,60,1920,1080,0,,f,1,0.8572,,5,4,44,4,1,,,,,,,,,,,,,,,,,
,,,,,,,,,,,,,,,,1,1,largeHcongr,Stimuli/HofH2.jpg,f,left,DP,2,2,2020-11-16_09h58.36.036,global_local,2020.2.4,Linux x86_64,60,1920,1080,0,,f,1,1.04142,,5,5,45,0,1,,,,,,,,,,,,,,,,,
,,,,,,,,,,,,,,,,1,4,largeHincon,Stimuli/HofS2.jpg,f,right,DP,2,2,2020-11-16_09h58.36.036,global_local,2020.2.4,Linux x86_64,60,1920,1080,0,,f,1,0.709565,,5,6,46,5,1,,,,,,,,,,,,,,,,,
,,,,,,,,,,,,,,,,1,7,largeSincon,Stimuli/SofH2.jpg,j,left,DP,2,2,2020-11-16_09h58.36.036,global_local,2020.2.4,Linux x86_64,60,1920,1080,0,,j,1,0.689775,,5,7,47,3,1,,,,,,,,,,,,,,,,,
,,,,,,,,,,,,,,,,1,7,largeSincon,Stimuli/SofH2.jpg,j,left,DP,2,2,2020-11-16_09h58.36.036,global_local,2020.2.4,Linux x86_64,60,1920,1080,0,,j,1,0.677765,,6,0,48,3,1,,,,,,,,,,,,,,,,,
,,,,,,,,,,,,,,,,1,3,largeHincon,Stimuli/HofS2.jpg,f,left,DP,2,2,2020-11-16_09h58.36.036,global_local,2020.2.4,Linux x86_64,60,1920,1080,0,,f,1,0.51477,,6,1,49,1,1,,,,,,,,,,,,,,,,,
,,,,,,,,,,,,,,,,1,4,largeHincon,Stimuli/HofS2.jpg,f,right,DP,2,2,2020-11-16_09h58.36.036,global_local,2020.2.4,Linux x86_64,60,1920,1080,1,space,f,1,0.579585,,6,2,50,5,1,0.70756,,,,,,,,,,,,,,,,
,,,,,,,,,,,,,,,,1,1,largeHcongr,Stimuli/HofH2.jpg,f,left,DP,2,2,2020-11-16_09h58.36.036,global_local,2020.2.4,Linux x86_64,60,1920,1080,0,,f,1,0.67755,,6,3,51,0,1,,,,,,,,,,,,,,,,,
,,,,,,,,,,,,,,,,1,2,largeHcongr,Stimuli/HofH2.jpg,f,right,DP,2,2,2020-11-16_09h58.36.036,global_local,2020.2.4,Linux x86_64,60,1920,1080,1,space,f,1,0.67868,,6,4,52,4,1,0.643325,,,,,,,,,,,,,,,,
,,,,,,,,,,,,,,,,1,8,largeSincon,Stimuli/SofH2.jpg,j,right,DP,2,2,2020-11-16_09h58.36.036,global_local,2020.2.4,Linux x86_64,60,1920,1080,0,,j,1,0.67237,,6,5,53,7,1,,,,,,,,,,,,,,,,,
,,,,,,,,,,,,,,,,1,5,largeScongr,Stimuli/SofS2.jpg,j,left,DP,2,2,2020-11-16_09h58.36.036,global_local,2020.2.4,Linux x86_64,60,1920,1080,0,,j,1,0.69709,,6,6,54,2,1,,,,,,,,,,,,,,,,,
,,,,,,,,,,,,,,,,1,6,largeScongr,Stimuli/SofS2.jpg,j,right,DP,2,2,2020-11-16_09h58.36.036,global_local,2020.2.4,Linux x86_64,60,1920,1080,0,,j,1,0.69028,,6,7,55,6,1,,,,,,,,,,,,,,,,,
,,,,,,,,,,,,,,,,1,1,largeHcongr,Stimuli/HofH2.jpg,f,left,DP,2,2,2020-11-16_09h58.36.036,global_local,2020.2.4,Linux x86_64,60,1920,1080,0,,f,1,0.774575,,7,0,56,0,1,,,,,,,,,,,,,,,,,
,,,,,,,,,,,,,,,,1,8,largeSincon,Stimuli/SofH2.jpg,j,right,DP,2,2,2020-11-16_09h58.36.036,global_local,2020.2.4,Linux x86_64,60,1920,1080,0,,j,1,0.758145,,7,1,57,7,1,,,,,,,,,,,,,,,,,
,,,,,,,,,,,,,,,,1,4,largeHincon,Stimuli/HofS2.jpg,f,right,DP,2,2,2020-11-16_09h58.36.036,global_local,2020.2.4,Linux x86_64,60,1920,1080,1,space,f,1,0.6804,,7,2,58,5,1,0.530685,,,,,,,,,,,,,,,,
,,,,,,,,,,,,,,,,1,2,largeHcongr,Stimuli/HofH2.jpg,f,right,DP,2,2,2020-11-16_09h58.36.036,global_local,2020.2.4,Linux x86_64,60,1920,1080,0,,f,1,0.640825,,7,3,59,4,1,,,,,,,,,,,,,,,,,
,,,,,,,,,,,,,,,,1,5,largeScongr,Stimuli/SofS2.jpg,j,left,DP,2,2,2020-11-16_09h58.36.036,global_local,2020.2.4,Linux x86_64,60,1920,1080,0,,j,1,0.52338,,7,4,60,2,1,,,,,,,,,,,,,,,,,
,,,,,,,,,,,,,,,,1,3,largeHincon,Stimuli/HofS2.jpg,f,left,DP,2,2,2020-11-16_09h58.36.036,global_local,2020.2.4,Linux x86_64,60,1920,1080,0,,f,1,0.57576,,7,5,61,1,1,,,,,,,,,,,,,,,,,
,,,,,,,,,,,,,,,,1,6,largeScongr,Stimuli/SofS2.jpg,j,right,DP,2,2,2020-11-16_09h58.36.036,global_local,2020.2.4,Linux x86_64,60,1920,1080,0,,j,1,0.545765,,7,6,62,6,1,,,,,,,,,,,,,,,,,
,,,,,,,,,,,,,,,,1,7,largeSincon,Stimuli/SofH2.jpg,j,left,DP,2,2,2020-11-16_09h58.36.036,global_local,2020.2.4,Linux x86_64,60,1920,1080,0,,j,1,0.71318,,7,7,63,3,1,,,,,,,,,,,,,,,,,
,,,,,,,,,,,,,,,,1,3,largeHincon,Stimuli/HofS2.jpg,f,left,DP,2,2,2020-11-16_09h58.36.036,global_local,2020.2.4,Linux x86_64,60,1920,1080,0,,f,1,0.84024,,8,0,64,1,1,,,,,,,,,,,,,,,,,
,,,,,,,,,,,,,,,,1,1,largeHcongr,Stimuli/HofH2.jpg,f,left,DP,2,2,2020-11-16_09h58.36.036,global_local,2020.2.4,Linux x86_64,60,1920,1080,0,,f,1,0.84487,,8,1,65,0,1,,,,,,,,,,,,,,,,,
,,,,,,,,,,,,,,,,1,6,largeScongr,Stimuli/SofS2.jpg,j,right,DP,2,2,2020-11-16_09h58.36.036,global_local,2020.2.4,Linux x86_64,60,1920,1080,0,,j,1,0.56119,,8,2,66,6,1,,,,,,,,,,,,,,,,,
,,,,,,,,,,,,,,,,1,4,largeHincon,Stimuli/HofS2.jpg,f,right,DP,2,2,2020-11-16_09h58.36.036,global_local,2020.2.4,Linux x86_64,60,1920,1080,0,,f,1,1.09496,,8,3,67,5,1,,,,,,,,,,,,,,,,,
,,,,,,,,,,,,,,,,1,8,largeSincon,Stimuli/SofH2.jpg,j,right,DP,2,2,2020-11-16_09h58.36.036,global_local,2020.2.4,Linux x86_64,60,1920,1080,0,,j,1,0.759215,,8,4,68,7,1,,,,,,,,,,,,,,,,,
,,,,,,,,,,,,,,,,1,5,largeScongr,Stimuli/SofS2.jpg,j,left,DP,2,2,2020-11-16_09h58.36.036,global_local,2020.2.4,Linux x86_64,60,1920,1080,0,,j,1,0.86325,,8,5,69,2,1,,,,,,,,,,,,,,,,,
,,,,,,,,,,,,,,,,1,2,largeHcongr,Stimuli/HofH2.jpg,f,right,DP,2,2,2020-11-16_09h58.36.036,global_local,2020.2.4,Linux x86_64,60,1920,1080,0,,f,1,0.690685,,8,6,70,4,1,,,,,,,,,,,,,,,,,
,,,,,,,,,,,,,,,,1,7,largeSincon,Stimuli/SofH2.jpg,j,left,DP,2,2,2020-11-16_09h58.36.036,global_local,2020.2.4,Linux x86_64,60,1920,1080,1,space,j,1,0.606945,,8,7,71,3,1,0.6138,,,,,,,,,,,,,,,,
,,,,,,,,,,,,,,,,1,8,largeSincon,Stimuli/SofH2.jpg,j,right,DP,2,2,2020-11-16_09h58.36.036,global_local,2020.2.4,Linux x86_64,60,1920,1080,0,,j,1,0.59071,,9,0,72,7,1,,,,,,,,,,,,,,,,,
,,,,,,,,,,,,,,,,1,7,largeSincon,Stimuli/SofH2.jpg,j,left,DP,2,2,2020-11-16_09h58.36.036,global_local,2020.2.4,Linux x86_64,60,1920,1080,0,,j,1,0.57245,,9,1,73,3,1,,,,,,,,,,,,,,,,,
,,,,,,,,,,,,,,,,1,4,largeHincon,Stimuli/HofS2.jpg,f,right,DP,2,2,2020-11-16_09h58.36.036,global_local,2020.2.4,Linux x86_64,60,1920,1080,1,space,f,1,0.72445,,9,2,74,5,1,0.654745,,,,,,,,,,,,,,,,
,,,,,,,,,,,,,,,,1,6,largeScongr,Stimuli/SofS2.jpg,j,right,DP,2,2,2020-11-16_09h58.36.036,global_local,2020.2.4,Linux x86_64,60,1920,1080,1,space,j,1,0.60882,,9,3,75,6,1,0.897285,,,,,,,,,,,,,,,,
,,,,,,,,,,,,,,,,1,3,largeHincon,Stimuli/HofS2.jpg,f,left,DP,2,2,2020-11-16_09h58.36.036,global_local,2020.2.4,Linux x86_64,60,1920,1080,0,,f,1,0.65594,,9,4,76,1,1,,,,,,,,,,,,,,,,,
,,,,,,,,,,,,,,,,1,2,largeHcongr,Stimuli/HofH2.jpg,f,right,DP,2,2,2020-11-16_09h58.36.036,global_local,2020.2.4,Linux x86_64,60,1920,1080,0,,f,1,0.82693,,9,5,77,4,1,,,,,,,,,,,,,,,,,
,,,,,,,,,,,,,,,,1,5,largeScongr,Stimuli/SofS2.jpg,j,left,DP,2,2,2020-11-16_09h58.36.036,global_local,2020.2.4,Linux x86_64,60,1920,1080,0,,j,1,0.53981,,9,6,78,2,1,,,,,,,,,,,,,,,,,
,,,,,,,,,,,,,,,,1,1,largeHcongr,Stimuli/HofH2.jpg,f,left,DP,2,2,2020-11-16_09h58.36.036,global_local,2020.2.4,Linux x86_64,60,1920,1080,0,,f,1,0.656265,,9,7,79,0,1,,,,,,,,,,,,,,,,,
,,,,,,,,,,,,,,,,1,4,largeHincon,Stimuli/HofS2.jpg,f,right,DP,2,2,2020-11-16_09h58.36.036,global_local,2020.2.4,Linux x86_64,60,1920,1080,0,,f,1,0.656805,,10,0,80,5,1,,,,,,,,,,,,,,,,,
,,,,,,,,,,,,,,,,1,8,largeSincon,Stimuli/SofH2.jpg,j,right,DP,2,2,2020-11-16_09h58.36.036,global_local,2020.2.4,Linux x86_64,60,1920,1080,0,,j,1,0.677995,,10,1,81,7,1,,,,,,,,,,,,,,,,,
,,,,,,,,,,,,,,,,1,1,largeHcongr,Stimuli/HofH2.jpg,f,left,DP,2,2,2020-11-16_09h58.36.036,global_local,2020.2.4,Linux x86_64,60,1920,1080,0,,f,1,0.689475,,10,2,82,0,1,,,,,,,,,,,,,,,,,
,,,,,,,,,,,,,,,,1,7,largeSincon,Stimuli/SofH2.jpg,j,left,DP,2,2,2020-11-16_09h58.36.036,global_local,2020.2.4,Linux x86_64,60,1920,1080,0,,j,1,0.573535,,10,3,83,3,1,,,,,,,,,,,,,,,,,
,,,,,,,,,,,,,,,,1,2,largeHcongr,Stimuli/HofH2.jpg,f,right,DP,2,2,2020-11-16_09h58.36.036,global_local,2020.2.4,Linux x86_64,60,1920,1080,0,,f,1,0.622985,,10,4,84,4,1,,,,,,,,,,,,,,,,,
,,,,,,,,,,,,,,,,1,5,largeScongr,Stimuli/SofS2.jpg,j,left,DP,2,2,2020-11-16_09h58.36.036,global_local,2020.2.4,Linux x86_64,60,1920,1080,0,,j,1,0.547535,,10,5,85,2,1,,,,,,,,,,,,,,,,,
,,,,,,,,,,,,,,,,1,3,largeHincon,Stimuli/HofS2.jpg,f,left,DP,2,2,2020-11-16_09h58.36.036,global_local,2020.2.4,Linux x86_64,60,1920,1080,0,,f,1,0.726075,,10,6,86,1,1,,,,,,,,,,,,,,,,,
,,,,,,,,,,,,,,,,1,6,largeScongr,Stimuli/SofS2.jpg,j,right,DP,2,2,2020-11-16_09h58.36.036,global_local,2020.2.4,Linux x86_64,60,1920,1080,0,,j,1,0.624725,,10,7,87,6,1,,,,,,,,,,,,,,,,,
,,,,,,,,,,,,,,,,1,7,largeSincon,Stimuli/SofH2.jpg,j,left,DP,2,2,2020-11-16_09h58.36.036,global_local,2020.2.4,Linux x86_64,60,1920,1080,0,,j,1,0.689655,,11,0,88,3,1,,,,,,,,,,,,,,,,,
,,,,,,,,,,,,,,,,1,3,largeHincon,Stimuli/HofS2.jpg,f,left,DP,2,2,2020-11-16_09h58.36.036,global_local,2020.2.4,Linux x86_64,60,1920,1080,0,,f,1,0.7264,,11,1,89,1,1,,,,,,,,,,,,,,,,,
,,,,,,,,,,,,,,,,1,6,largeScongr,Stimuli/SofS2.jpg,j,right,DP,2,2,2020-11-16_09h58.36.036,global_local,2020.2.4,Linux x86_64,60,1920,1080,0,,j,1,0.58983,,11,2,90,6,1,,,,,,,,,,,,,,,,,
,,,,,,,,,,,,,,,,1,4,largeHincon,Stimuli/HofS2.jpg,f,right,DP,2,2,2020-11-16_09h58.36.036,global_local,2020.2.4,Linux x86_64,60,1920,1080,0,,f,1,0.660455,,11,3,91,5,1,,,,,,,,,,,,,,,,,
,,,,,,,,,,,,,,,,1,5,largeScongr,Stimuli/SofS2.jpg,j,left,DP,2,2,2020-11-16_09h58.36.036,global_local,2020.2.4,Linux x86_64,60,1920,1080,0,,j,1,0.51357,,11,4,92,2,1,,,,,,,,,,,,,,,,,
,,,,,,,,,,,,,,,,1,1,largeHcongr,Stimuli/HofH2.jpg,f,left,DP,2,2,2020-11-16_09h58.36.036,global_local,2020.2.4,Linux x86_64,60,1920,1080,0,,f,1,0.49104,,11,5,93,0,1,,,,,,,,,,,,,,,,,
,,,,,,,,,,,,,,,,1,8,largeSincon,Stimuli/SofH2.jpg,j,right,DP,2,2,2020-11-16_09h58.36.036,global_local,2020.2.4,Linux x86_64,60,1920,1080,0,,j,1,0.578745,,11,6,94,7,1,,,,,,,,,,,,,,,,,
,,,,,,,,,,,,,,,,1,2,largeHcongr,Stimuli/HofH2.jpg,f,right,DP,2,2,2020-11-16_09h58.36.036,global_local,2020.2.4,Linux x86_64,60,1920,1080,0,,f,1,0.656145,,11,7,95,4,1,,,,,,,,,,,,,,,,,
,,j,1,1.395795,,f,1,1.50722,,1,,,,,,2,1,smallHcongr,Stimuli/HofH2.jpg,f,left,DP,2,2,2020-11-16_09h58.36.036,global_local,2020.2.4,Linux x86_64,60,1920,1080,,,,,,,,,,,,,,0,,0,0,0,2,1,,,,,,,,
,,,,,,j,1,0.94824,,1,,,,,,2,5,smallScongr,Stimuli/SofS2.jpg,j,left,DP,2,2,2020-11-16_09h58.36.036,global_local,2020.2.4,Linux x86_64,60,1920,1080,,,,,,,,,,,,,,0,,0,1,1,1,1,,,,,,,,
,,,,,,f,1,0.826555,,1,,,,,,2,2,smallHcongr,Stimuli/HofH2.jpg,f,right,DP,2,2,2020-11-16_09h58.36.036,global_local,2020.2.4,Linux x86_64,60,1920,1080,,,,,,,,,,,,,,0,,0,2,2,3,1,,,,,,,,
,,,,,,j,1,0.847335,,0,,,,,,2,7,smallSincon,Stimuli/HofS2.jpg,j,left,DP,2,2,2020-11-16_09h58.36.036,global_local,2020.2.4,Linux x86_64,60,1920,1080,,,,,,,,,,,,,,1,space,0,3,3,0,1,0.941025,,,,,,,
,,,,,,,,,,,,,,,,2,1,smallHcongr,Stimuli/HofH2.jpg,f,left,DP,2,2,2020-11-16_09h58.36.036,global_local,2020.2.4,Linux x86_64,60,1920,1080,,,f,1,0.72723,,,,,,,,,,,,,,,,,0,,0,0,0,0,1
,,,,,,,,,,,,,,,,2,5,smallScongr,Stimuli/SofS2.jpg,j,left,DP,2,2,2020-11-16_09h58.36.036,global_local,2020.2.4,Linux x86_64,60,1920,1080,,,j,1,0.723845,,,,,,,,,,,,,,,,,0,,0,1,1,2,1
,,,,,,,,,,,,,,,,2,8,smallSincon,Stimuli/HofS2.jpg,j,right,DP,2,2,2020-11-16_09h58.36.036,global_local,2020.2.4,Linux x86_64,60,1920,1080,,,j,1,0.67244,,,,,,,,,,,,,,,,,0,,0,2,2,7,1
,,,,,,,,,,,,,,,,2,7,smallSincon,Stimuli/HofS2.jpg,j,left,DP,2,2,2020-11-16_09h58.36.036,global_local,2020.2.4,Linux x86_64,60,1920,1080,,,j,1,0.682775,,,,,,,,,,,,,,,,,0,,0,3,3,3,1
,,,,,,,,,,,,,,,,2,4,smallHincon,Stimuli/SofH2.jpg,f,right,DP,2,2,2020-11-16_09h58.36.036,global_local,2020.2.4,Linux x86_64,60,1920,1080,,,f,1,0.874475,,,,,,,,,,,,,,,,,0,,0,4,4,5,1
,,,,,,,,,,,,,,,,2,2,smallHcongr,Stimuli/HofH2.jpg,f,right,DP,2,2,2020-11-16_09h58.36.036,global_local,2020.2.4,Linux x86_64,60,1920,1080,,,f,1,0.711495,,,,,,,,,,,,,,,,,0,,0,5,5,4,1
,,,,,,,,,,,,,,,,2,3,smallHincon,Stimuli/SofH2.jpg,f,left,DP,2,2,2020-11-16_09h58.36.036,global_local,2020.2.4,Linux x86_64,60,1920,1080,,,f,1,0.80698,,,,,,,,,,,,,,,,,0,,0,6,6,1,1
,,,,,,,,,,,,,,,,2,6,smallScongr,Stimuli/SofS2.jpg,j,right,DP,2,2,2020-11-16_09h58.36.036,global_local,2020.2.4,Linux x86_64,60,1920,1080,,,j,1,0.610725,,,,,,,,,,,,,,,,,0,,0,7,7,6,1
,,,,,,,,,,,,,,,,2,4,smallHincon,Stimuli/SofH2.jpg,f,right,DP,2,2,2020-11-16_09h58.36.036,global_local,2020.2.4,Linux x86_64,60,1920,1080,,,f,1,0.84184,,,,,,,,,,,,,,,,,0,,1,0,8,5,1
,,,,,,,,,,,,,,,,2,2,smallHcongr,Stimuli/HofH2.jpg,f,right,DP,2,2,2020-11-16_09h58.36.036,global_local,2020.2.4,Linux x86_64,60,1920,1080,,,f,1,0.65929,,,,,,,,,,,,,,,,,0,,1,1,9,4,1
,,,,,,,,,,,,,,,,2,8,smallSincon,Stimuli/HofS2.jpg,j,right,DP,2,2,2020-11-16_09h58.36.036,global_local,2020.2.4,Linux x86_64,60,1920,1080,,,j,1,0.80638,,,,,,,,,,,,,,,,,0,,1,2,10,7,1
,,,,,,,,,,,,,,,,2,5,smallScongr,Stimuli/SofS2.jpg,j,left,DP,2,2,2020-11-16_09h58.36.036,global_local,2020.2.4,Linux x86_64,60,1920,1080,,,j,1,1.012475,,,,,,,,,,,,,,,,,0,,1,3,11,2,1
,,,,,,,,,,,,,,,,2,6,smallScongr,Stimuli/SofS2.jpg,j,right,DP,2,2,2020-11-16_09h58.36.036,global_local,2020.2.4,Linux x86_64,60,1920,1080,,,j,1,0.657515,,,,,,,,,,,,,,,,,1,,1,4,12,6,1
,,,,,,,,,,,,,,,,2,7,smallSincon,Stimuli/HofS2.jpg,j,left,DP,2,2,2020-11-16_09h58.36.036,global_local,2020.2.4,Linux x86_64,60,1920,1080,,,j,1,0.596915,,,,,,,,,,,,,,,,,0,,1,5,13,3,1
,,,,,,,,,,,,,,,,2,3,smallHincon,Stimuli/SofH2.jpg,f,left,DP,2,2,2020-11-16_09h58.36.036,global_local,2020.2.4,Linux x86_64,60,1920,1080,,,f,1,0.740955,,,,,,,,,,,,,,,,,0,,1,6,14,1,1
,,,,,,,,,,,,,,,,2,1,smallHcongr,Stimuli/HofH2.jpg,f,left,DP,2,2,2020-11-16_09h58.36.036,global_local,2020.2.4,Linux x86_64,60,1920,1080,,,f,1,0.626275,,,,,,,,,,,,,,,,,0,,1,7,15,0,1
,,,,,,,,,,,,,,,,2,2,smallHcongr,Stimuli/HofH2.jpg,f,right,DP,2,2,2020-11-16_09h58.36.036,global_local,2020.2.4,Linux x86_64,60,1920,1080,,,f,1,0.715095,,,,,,,,,,,,,,,,,0,,2,0,16,4,1
,,,,,,,,,,,,,,,,2,4,smallHincon,Stimuli/SofH2.jpg,f,right,DP,2,2,2020-11-16_09h58.36.036,global_local,2020.2.4,Linux x86_64,60,1920,1080,,,f,1,0.67379,,,,,,,,,,,,,,,,,0,,2,1,17,5,1
,,,,,,,,,,,,,,,,2,1,smallHcongr,Stimuli/HofH2.jpg,f,left,DP,2,2,2020-11-16_09h58.36.036,global_local,2020.2.4,Linux x86_64,60,1920,1080,,,f,1,0.66465,,,,,,,,,,,,,,,,,0,,2,2,18,0,1
,,,,,,,,,,,,,,,,2,5,smallScongr,Stimuli/SofS2.jpg,j,left,DP,2,2,2020-11-16_09h58.36.036,global_local,2020.2.4,Linux x86_64,60,1920,1080,,,j,1,0.623075,,,,,,,,,,,,,,,,,0,,2,3,19,2,1
,,,,,,,,,,,,,,,,2,3,smallHincon,Stimuli/SofH2.jpg,f,left,DP,2,2,2020-11-16_09h58.36.036,global_local,2020.2.4,Linux x86_64,60,1920,1080,,,f,1,1.029035,,,,,,,,,,,,,,,,,0,,2,4,20,1,1
,,,,,,,,,,,,,,,,2,8,smallSincon,Stimuli/HofS2.jpg,j,right,DP,2,2,2020-11-16_09h58.36.036,global_local,2020.2.4,Linux x86_64,60,1920,1080,,,j,1,0.77213,,,,,,,,,,,,,,,,,0,,2,5,21,7,1
,,,,,,,,,,,,,,,,2,7,smallSincon,Stimuli/HofS2.jpg,j,left,DP,2,2,2020-11-16_09h58.36.036,global_local,2020.2.4,Linux x86_64,60,1920,1080,,,j,1,0.76096,,,,,,,,,,,,,,,,,0,,2,6,22,3,1
,,,,,,,,,,,,,,,,2,6,smallScongr,Stimuli/SofS2.jpg,j,right,DP,2,2,2020-11-16_09h58.36.036,global_local,2020.2.4,Linux x86_64,60,1920,1080,,,j,1,0.59522,,,,,,,,,,,,,,,,,0,,2,7,23,6,1
,,,,,,,,,,,,,,,,2,3,smallHincon,Stimuli/SofH2.jpg,f,left,DP,2,2,2020-11-16_09h58.36.036,global_local,2020.2.4,Linux x86_64,60,1920,1080,,,f,1,0.86245,,,,,,,,,,,,,,,,,0,,3,0,24,1,1
,,,,,,,,,,,,,,,,2,6,smallScongr,Stimuli/SofS2.jpg,j,right,DP,2,2,2020-11-16_09h58.36.036,global_local,2020.2.4,Linux x86_64,60,1920,1080,,,j,1,0.64581,,,,,,,,,,,,,,,,,0,,3,1,25,6,1
,,,,,,,,,,,,,,,,2,7,smallSincon,Stimuli/HofS2.jpg,j,left,DP,2,2,2020-11-16_09h58.36.036,global_local,2020.2.4,Linux x86_64,60,1920,1080,,,j,1,0.77908,,,,,,,,,,,,,,,,,0,,3,2,26,3,1
,,,,,,,,,,,,,,,,2,2,smallHcongr,Stimuli/HofH2.jpg,f,right,DP,2,2,2020-11-16_09h58.36.036,global_local,2020.2.4,Linux x86_64,60,1920,1080,,,f,1,0.54376,,,,,,,,,,,,,,,,,1,,3,3,27,4,1
,,,,,,,,,,,,,,,,2,5,smallScongr,Stimuli/SofS2.jpg,j,left,DP,2,2,2020-11-16_09h58.36.036,global_local,2020.2.4,Linux x86_64,60,1920,1080,,,j,1,0.97847,,,,,,,,,,,,,,,,,0,,3,4,28,2,1
,,,,,,,,,,,,,,,,2,8,smallSincon,Stimuli/HofS2.jpg,j,right,DP,2,2,2020-11-16_09h58.36.036,global_local,2020.2.4,Linux x86_64,60,1920,1080,,,j,1,0.688745,,,,,,,,,,,,,,,,,0,,3,5,29,7,1
,,,,,,,,,,,,,,,,2,4,smallHincon,Stimuli/SofH2.jpg,f,right,DP,2,2,2020-11-16_09h58.36.036,global_local,2020.2.4,Linux x86_64,60,1920,1080,,,f,1,0.59605,,,,,,,,,,,,,,,,,0,,3,6,30,5,1
,,,,,,,,,,,,,,,,2,1,smallHcongr,Stimuli/HofH2.jpg,f,left,DP,2,2,2020-11-16_09h58.36.036,global_local,2020.2.4,Linux x86_64,60,1920,1080,,,j,0,0.708095,,,,,,,,,,,,,,,,,0,,3,7,31,0,1
,,,,,,,,,,,,,,,,2,2,smallHcongr,Stimuli/HofH2.jpg,f,right,DP,2,2,2020-11-16_09h58.36.036,global_local,2020.2.4,Linux x86_64,60,1920,1080,,,f,1,1.22664,,,,,,,,,,,,,,,,,0,,4,0,32,4,1
,,,,,,,,,,,,,,,,2,6,smallScongr,Stimuli/SofS2.jpg,j,right,DP,2,2,2020-11-16_09h58.36.036,global_local,2020.2.4,Linux x86_64,60,1920,1080,,,j,1,0.743355,,,,,,,,,,,,,,,,,0,,4,1,33,6,1
,,,,,,,,,,,,,,,,2,7,smallSincon,Stimuli/HofS2.jpg,j,left,DP,2,2,2020-11-16_09h58.36.036,global_local,2020.2.4,Linux x86_64,60,1920,1080,,,j,1,0.66067,,,,,,,,,,,,,,,,,0,,4,2,34,3,1
,,,,,,,,,,,,,,,,2,8,smallSincon,Stimuli/HofS2.jpg,j,right,DP,2,2,2020-11-16_09h58.36.036,global_local,2020.2.4,Linux x86_64,60,1920,1080,,,j,1,0.973335,,,,,,,,,,,,,,,,,1,,4,3,35,7,1
,,,,,,,,,,,,,,,,2,3,smallHincon,Stimuli/SofH2.jpg,f,left,DP,2,2,2020-11-16_09h58.36.036,global_local,2020.2.4,Linux x86_64,60,1920,1080,,,f,1,0.82363,,,,,,,,,,,,,,,,,0,,4,4,36,1,1
,,,,,,,,,,,,,,,,2,1,smallHcongr,Stimuli/HofH2.jpg,f,left,DP,2,2,2020-11-16_09h58.36.036,global_local,2020.2.4,Linux x86_64,60,1920,1080,,,f,1,0.839385,,,,,,,,,,,,,,,,,0,,4,5,37,0,1
,,,,,,,,,,,,,,,,2,4,smallHincon,Stimuli/SofH2.jpg,f,right,DP,2,2,2020-11-16_09h58.36.036,global_local,2020.2.4,Linux x86_64,60,1920,1080,,,f,1,0.823045,,,,,,,,,,,,,,,,,0,,4,6,38,5,1
,,,,,,,,,,,,,,,,2,5,smallScongr,Stimuli/SofS2.jpg,j,left,DP,2,2,2020-11-16_09h58.36.036,global_local,2020.2.4,Linux x86_64,60,1920,1080,,,j,1,0.68097,,,,,,,,,,,,,,,,,0,,4,7,39,2,1
,,,,,,,,,,,,,,,,2,6,smallScongr,Stimuli/SofS2.jpg,j,right,DP,2,2,2020-11-16_09h58.36.036,global_local,2020.2.4,Linux x86_64,60,1920,1080,,,j,1,1.16282,,,,,,,,,,,,,,,,,0,,5,0,40,6,1
,,,,,,,,,,,,,,,,2,2,smallHcongr,Stimuli/HofH2.jpg,f,right,DP,2,2,2020-11-16_09h58.36.036,global_local,2020.2.4,Linux x86_64,60,1920,1080,,,f,1,0.65694,,,,,,,,,,,,,,,,,0,,5,1,41,4,1
,,,,,,,,,,,,,,,,2,4,smallHincon,Stimuli/SofH2.jpg,f,right,DP,2,2,2020-11-16_09h58.36.036,global_local,2020.2.4,Linux x86_64,60,1920,1080,,,f,1,0.840795,,,,,,,,,,,,,,,,,0,,5,2,42,5,1
,,,,,,,,,,,,,,,,2,8,smallSincon,Stimuli/HofS2.jpg,j,right,DP,2,2,2020-11-16_09h58.36.036,global_local,2020.2.4,Linux x86_64,60,1920,1080,,,j,1,0.697455,,,,,,,,,,,,,,,,,0,,5,3,43,7,1
,,,,,,,,,,,,,,,,2,3,smallHincon,Stimuli/SofH2.jpg,f,left,DP,2,2,2020-11-16_09h58.36.036,global_local,2020.2.4,Linux x86_64,60,1920,1080,,,f,1,0.997445,,,,,,,,,,,,,,,,,0,,5,4,44,1,1
,,,,,,,,,,,,,,,,2,7,smallSincon,Stimuli/HofS2.jpg,j,left,DP,2,2,2020-11-16_09h58.36.036,global_local,2020.2.4,Linux x86_64,60,1920,1080,,,j,1,0.94041,,,,,,,,,,,,,,,,,0,,5,5,45,3,1
,,,,,,,,,,,,,,,,2,5,smallScongr,Stimuli/SofS2.jpg,j,left,DP,2,2,2020-11-16_09h58.36.036,global_local,2020.2.4,Linux x86_64,60,1920,1080,,,j,1,0.664855,,,,,,,,,,,,,,,,,0,,5,6,46,2,1
,,,,,,,,,,,,,,,,2,1,smallHcongr,Stimuli/HofH2.jpg,f,left,DP,2,2,2020-11-16_09h58.36.036,global_local,2020.2.4,Linux x86_64,60,1920,1080,,,f,1,0.779045,,,,,,,,,,,,,,,,,0,,5,7,47,0,1
,,,,,,,,,,,,,,,,2,3,smallHincon,Stimuli/SofH2.jpg,f,left,DP,2,2,2020-11-16_09h58.36.036,global_local,2020.2.4,Linux x86_64,60,1920,1080,,,f,1,0.827855,,,,,,,,,,,,,,,,,1,,6,0,48,1,1
,,,,,,,,,,,,,,,,2,5,smallScongr,Stimuli/SofS2.jpg,j,left,DP,2,2,2020-11-16_09h58.36.036,global_local,2020.2.4,Linux x86_64,60,1920,1080,,,j,1,0.70882,,,,,,,,,,,,,,,,,0,,6,1,49,2,1
,,,,,,,,,,,,,,,,2,6,smallScongr,Stimuli/SofS2.jpg,j,right,DP,2,2,2020-11-16_09h58.36.036,global_local,2020.2.4,Linux x86_64,60,1920,1080,,,j,1,0.64728,,,,,,,,,,,,,,,,,0,,6,2,50,6,1
,,,,,,,,,,,,,,,,2,8,smallSincon,Stimuli/HofS2.jpg,j,right,DP,2,2,2020-11-16_09h58.36.036,global_local,2020.2.4,Linux x86_64,60,1920,1080,,,j,1,0.7435,,,,,,,,,,,,,,,,,1,,6,3,51,7,1
,,,,,,,,,,,,,,,,2,2,smallHcongr,Stimuli/HofH2.jpg,f,right,DP,2,2,2020-11-16_09h58.36.036,global_local,2020.2.4,Linux x86_64,60,1920,1080,,,f,1,0.806135,,,,,,,,,,,,,,,,,0,,6,4,52,4,1
,,,,,,,,,,,,,,,,2,1,smallHcongr,Stimuli/HofH2.jpg,f,left,DP,2,2,2020-11-16_09h58.36.036,global_local,2020.2.4,Linux x86_64,60,1920,1080,,,f,1,0.591305,,,,,,,,,,,,,,,,,0,,6,5,53,0,1
,,,,,,,,,,,,,,,,2,7,smallSincon,Stimuli/HofS2.jpg,j,left,DP,2,2,2020-11-16_09h58.36.036,global_local,2020.2.4,Linux x86_64,60,1920,1080,,,j,1,0.67937,,,,,,,,,,,,,,,,,1,,6,6,54,3,1
,,,,,,,,,,,,,,,,2,4,smallHincon,Stimuli/SofH2.jpg,f,right,DP,2,2,2020-11-16_09h58.36.036,global_local,2020.2.4,Linux x86_64,60,1920,1080,,,f,1,0.843795,,,,,,,,,,,,,,,,,0,,6,7,55,5,1
,,,,,,,,,,,,,,,,2,2,smallHcongr,Stimuli/HofH2.jpg,f,right,DP,2,2,2020-11-16_09h58.36.036,global_local,2020.2.4,Linux x86_64,60,1920,1080,,,f,1,0.5479,,,,,,,,,,,,,,,,,0,,7,0,56,4,1
,,,,,,,,,,,,,,,,2,5,smallScongr,Stimuli/SofS2.jpg,j,left,DP,2,2,2020-11-16_09h58.36.036,global_local,2020.2.4,Linux x86_64,60,1920,1080,,,j,1,0.62756,,,,,,,,,,,,,,,,,0,,7,1,57,2,1
,,,,,,,,,,,,,,,,2,6,smallScongr,Stimuli/SofS2.jpg,j,right,DP,2,2,2020-11-16_09h58.36.036,global_local,2020.2.4,Linux x86_64,60,1920,1080,,,j,1,0.75876,,,,,,,,,,,,,,,,,0,,7,2,58,6,1
,,,,,,,,,,,,,,,,2,1,smallHcongr,Stimuli/HofH2.jpg,f,left,DP,2,2,2020-11-16_09h58.36.036,global_local,2020.2.4,Linux x86_64,60,1920,1080,,,f,1,0.67728,,,,,,,,,,,,,,,,,1,,7,3,59,0,1
,,,,,,,,,,,,,,,,2,3,smallHincon,Stimuli/SofH2.jpg,f,left,DP,2,2,2020-11-16_09h58.36.036,global_local,2020.2.4,Linux x86_64,60,1920,1080,,,j,0,0.71539,,,,,,,,,,,,,,,,,0,,7,4,60,1,1
,,,,,,,,,,,,,,,,2,7,smallSincon,Stimuli/HofS2.jpg,j,left,DP,2,2,2020-11-16_09h58.36.036,global_local,2020.2.4,Linux x86_64,60,1920,1080,,,j,1,0.877515,,,,,,,,,,,,,,,,,0,,7,5,61,3,1
,,,,,,,,,,,,,,,,2,4,smallHincon,Stimuli/SofH2.jpg,f,right,DP,2,2,2020-11-16_09h58.36.036,global_local,2020.2.4,Linux x86_64,60,1920,1080,,,f,1,1.263155,,,,,,,,,,,,,,,,,0,,7,6,62,5,1
,,,,,,,,,,,,,,,,2,8,smallSincon,Stimuli/HofS2.jpg,j,right,DP,2,2,2020-11-16_09h58.36.036,global_local,2020.2.4,Linux x86_64,60,1920,1080,,,j,1,0.807465,,,,,,,,,,,,,,,,,0,,7,7,63,7,1
,,,,,,,,,,,,,,,,2,3,smallHincon,Stimuli/SofH2.jpg,f,left,DP,2,2,2020-11-16_09h58.36.036,global_local,2020.2.4,Linux x86_64,60,1920,1080,,,f,1,0.805215,,,,,,,,,,,,,,,,,0,,8,0,64,1,1
,,,,,,,,,,,,,,,,2,6,smallScongr,Stimuli/SofS2.jpg,j,right,DP,2,2,2020-11-16_09h58.36.036,global_local,2020.2.4,Linux x86_64,60,1920,1080,,,j,1,0.60735,,,,,,,,,,,,,,,,,1,,8,1,65,6,1
,,,,,,,,,,,,,,,,2,5,smallScongr,Stimuli/SofS2.jpg,j,left,DP,2,2,2020-11-16_09h58.36.036,global_local,2020.2.4,Linux x86_64,60,1920,1080,,,j,1,0.65994,,,,,,,,,,,,,,,,,0,,8,2,66,2,1
,,,,,,,,,,,,,,,,2,2,smallHcongr,Stimuli/HofH2.jpg,f,right,DP,2,2,2020-11-16_09h58.36.036,global_local,2020.2.4,Linux x86_64,60,1920,1080,,,f,1,0.560325,,,,,,,,,,,,,,,,,0,,8,3,67,4,1
,,,,,,,,,,,,,,,,2,7,smallSincon,Stimuli/HofS2.jpg,j,left,DP,2,2,2020-11-16_09h58.36.036,global_local,2020.2.4,Linux x86_64,60,1920,1080,,,j,1,0.75617,,,,,,,,,,,,,,,,,1,,8,4,68,3,1
,,,,,,,,,,,,,,,,2,1,smallHcongr,Stimuli/HofH2.jpg,f,left,DP,2,2,2020-11-16_09h58.36.036,global_local,2020.2.4,Linux x86_64,60,1920,1080,,,f,1,0.75658,,,,,,,,,,,,,,,,,0,,8,5,69,0,1
,,,,,,,,,,,,,,,,2,4,smallHincon,Stimuli/SofH2.jpg,f,right,DP,2,2,2020-11-16_09h58.36.036,global_local,2020.2.4,Linux x86_64,60,1920,1080,,,f,1,0.8733,,,,,,,,,,,,,,,,,0,,8,6,70,5,1
,,,,,,,,,,,,,,,,2,8,smallSincon,Stimuli/HofS2.jpg,j,right,DP,2,2,2020-11-16_09h58.36.036,global_local,2020.2.4,Linux x86_64,60,1920,1080,,,j,1,0.708145,,,,,,,,,,,,,,,,,0,,8,7,71,7,1
,,,,,,,,,,,,,,,,2,6,smallScongr,Stimuli/SofS2.jpg,j,right,DP,2,2,2020-11-16_09h58.36.036,global_local,2020.2.4,Linux x86_64,60,1920,1080,,,j,1,0.758745,,,,,,,,,,,,,,,,,0,,9,0,72,6,1
,,,,,,,,,,,,,,,,2,5,smallScongr,Stimuli/SofS2.jpg,j,left,DP,2,2,2020-11-16_09h58.36.036,global_local,2020.2.4,Linux x86_64,60,1920,1080,,,j,1,0.623535,,,,,,,,,,,,,,,,,0,,9,1,73,2,1
,,,,,,,,,,,,,,,,2,1,smallHcongr,Stimuli/HofH2.jpg,f,left,DP,2,2,2020-11-16_09h58.36.036,global_local,2020.2.4,Linux x86_64,60,1920,1080,,,f,1,0.696465,,,,,,,,,,,,,,,,,0,,9,2,74,0,1
,,,,,,,,,,,,,,,,2,3,smallHincon,Stimuli/SofH2.jpg,f,left,DP,2,2,2020-11-16_09h58.36.036,global_local,2020.2.4,Linux x86_64,60,1920,1080,,,f,1,0.790805,,,,,,,,,,,,,,,,,0,,9,3,75,1,1
,,,,,,,,,,,,,,,,2,7,smallSincon,Stimuli/HofS2.jpg,j,left,DP,2,2,2020-11-16_09h58.36.036,global_local,2020.2.4,Linux x86_64,60,1920,1080,,,j,1,0.68991,,,,,,,,,,,,,,,,,0,,9,4,76,3,1
,,,,,,,,,,,,,,,,2,2,smallHcongr,Stimuli/HofH2.jpg,f,right,DP,2,2,2020-11-16_09h58.36.036,global_local,2020.2.4,Linux x86_64,60,1920,1080,,,f,1,0.906275,,,,,,,,,,,,,,,,,0,,9,5,77,4,1
,,,,,,,,,,,,,,,,2,4,smallHincon,Stimuli/SofH2.jpg,f,right,DP,2,2,2020-11-16_09h58.36.036,global_local,2020.2.4,Linux x86_64,60,1920,1080,,,f,1,0.926,,,,,,,,,,,,,,,,,0,,9,6,78,5,1
,,,,,,,,,,,,,,,,2,8,smallSincon,Stimuli/HofS2.jpg,j,right,DP,2,2,2020-11-16_09h58.36.036,global_local,2020.2.4,Linux x86_64,60,1920,1080,,,j,1,0.74522,,,,,,,,,,,,,,,,,0,,9,7,79,7,1
,,,,,,,,,,,,,,,,2,7,smallSincon,Stimuli/HofS2.jpg,j,left,DP,2,2,2020-11-16_09h58.36.036,global_local,2020.2.4,Linux x86_64,60,1920,1080,,,j,1,0.693395,,,,,,,,,,,,,,,,,0,,10,0,80,3,1
,,,,,,,,,,,,,,,,2,4,smallHincon,Stimuli/SofH2.jpg,f,right,DP,2,2,2020-11-16_09h58.36.036,global_local,2020.2.4,Linux x86_64,60,1920,1080,,,f,1,0.71479,,,,,,,,,,,,,,,,,0,,10,1,81,5,1
,,,,,,,,,,,,,,,,2,8,smallSincon,Stimuli/HofS2.jpg,j,right,DP,2,2,2020-11-16_09h58.36.036,global_local,2020.2.4,Linux x86_64,60,1920,1080,,,j,1,0.77378,,,,,,,,,,,,,,,,,1,,10,2,82,7,1
,,,,,,,,,,,,,,,,2,3,smallHincon,Stimuli/SofH2.jpg,f,left,DP,2,2,2020-11-16_09h58.36.036,global_local,2020.2.4,Linux x86_64,60,1920,1080,,,f,1,0.839945,,,,,,,,,,,,,,,,,0,,10,3,83,1,1
,,,,,,,,,,,,,,,,2,6,smallScongr,Stimuli/SofS2.jpg,j,right,DP,2,2,2020-11-16_09h58.36.036,global_local,2020.2.4,Linux x86_64,60,1920,1080,,,j,1,0.74075,,,,,,,,,,,,,,,,,0,,10,4,84,6,1
,,,,,,,,,,,,,,,,2,5,smallScongr,Stimuli/SofS2.jpg,j,left,DP,2,2,2020-11-16_09h58.36.036,global_local,2020.2.4,Linux x86_64,60,1920,1080,,,j,1,0.65799,,,,,,,,,,,,,,,,,0,,10,5,85,2,1
,,,,,,,,,,,,,,,,2,2,smallHcongr,Stimuli/HofH2.jpg,f,right,DP,2,2,2020-11-16_09h58.36.036,global_local,2020.2.4,Linux x86_64,60,1920,1080,,,f,1,0.52742,,,,,,,,,,,,,,,,,0,,10,6,86,4,1
,,,,,,,,,,,,,,,,2,1,smallHcongr,Stimuli/HofH2.jpg,f,left,DP,2,2,2020-11-16_09h58.36.036,global_local,2020.2.4,Linux x86_64,60,1920,1080,,,f,1,0.65935,,,,,,,,,,,,,,,,,0,,10,7,87,0,1
,,,,,,,,,,,,,,,,2,3,smallHincon,Stimuli/SofH2.jpg,f,left,DP,2,2,2020-11-16_09h58.36.036,global_local,2020.2.4,Linux x86_64,60,1920,1080,,,f,1,0.94431,,,,,,,,,,,,,,,,,1,,11,0,88,1,1
,,,,,,,,,,,,,,,,2,2,smallHcongr,Stimuli/HofH2.jpg,f,right,DP,2,2,2020-11-16_09h58.36.036,global_local,2020.2.4,Linux x86_64,60,1920,1080,,,f,1,0.691605,,,,,,,,,,,,,,,,,0,,11,1,89,4,1
,,,,,,,,,,,,,,,,2,7,smallSincon,Stimuli/HofS2.jpg,j,left,DP,2,2,2020-11-16_09h58.36.036,global_local,2020.2.4,Linux x86_64,60,1920,1080,,,j,1,0.623905,,,,,,,,,,,,,,,,,0,,11,2,90,3,1
,,,,,,,,,,,,,,,,2,6,smallScongr,Stimuli/SofS2.jpg,j,right,DP,2,2,2020-11-16_09h58.36.036,global_local,2020.2.4,Linux x86_64,60,1920,1080,,,j,1,1.095445,,,,,,,,,,,,,,,,,0,,11,3,91,6,1
,,,,,,,,,,,,,,,,2,1,smallHcongr,Stimuli/HofH2.jpg,f,left,DP,2,2,2020-11-16_09h58.36.036,global_local,2020.2.4,Linux x86_64,60,1920,1080,,,f,1,0.672,,,,,,,,,,,,,,,,,0,,11,4,92,0,1
,,,,,,,,,,,,,,,,2,5,smallScongr,Stimuli/SofS2.jpg,j,left,DP,2,2,2020-11-16_09h58.36.036,global_local,2020.2.4,Linux x86_64,60,1920,1080,,,j,1,0.710605,,,,,,,,,,,,,,,,,0,,11,5,93,2,1
,,,,,,,,,,,,,,,,2,8,smallSincon,Stimuli/HofS2.jpg,j,right,DP,2,2,2020-11-16_09h58.36.036,global_local,2020.2.4,Linux x86_64,60,1920,1080,,,j,1,0.73969,,,,,,,,,,,,,,,,,0,,11,6,94,7,1
,,,,,,,,,,,,,,,,2,4,smallHincon,Stimuli/SofH2.jpg,f,right,DP,2,2,2020-11-16_09h58.36.036,global_local,2020.2.4,Linux x86_64,60,1920,1080,,,f,1,0.79437,,,,,,,,,,,,,,,,,1,,11,7,95,5,1
